{
  "id": "DCFQACHFUYO32KDI",
  "type": "searchset",
  "entry": [
    {
      "fullUrl": "http://localhost:9090/fhir/Patient/DCFPIXVY34SQMPST",
      "resource": {
        "meta": {
          "versionId": "1",
          "lastUpdated": "2023-06-12T11:02:55.144Z"
        },
        "name": [
          {
            "family": "Jones",
            "given": [
              "Brianna"
            ]
          }
        ],
        "birthDate": "1987-06-13",
        "resourceType": "Patient",
        "id": "DCFPIXVY34SQMPST",
        "gender": "male"
      },
      "search": {
        "mode": "match"
      }
    },
    {
      "fullUrl": "http://localhost:9090/fhir/Patient/DCFPIXVY34SQMPSM",
      "resource": {
        "meta": {
          "versionId": "1",
          "lastUpdated": "2023-06-12T11:02:55.144Z"
        },
        "name": [
          {
            "family": "Martinez",
            "given": [
              "Tracey"
            ]
          }
        ],
        "birthDate": "1984-01-28",
        "resourceType": "Patient",
        "id": "DCFPIXVY34SQMPSM",
        "gender": "female"
      },
      "search": {
        "mode": "match"
      }
    },
    {
      "fullUrl": "http://localhost:9090/fhir/Patient/DCFPI2LVEWAH3V23",
      "resource": {
        "meta": {
          "versionId": "6",
          "lastUpdated": "2023-06-12T11:03:39.091Z"
        },
        "name": [
          {
            "family": "Bennett",
            "given": [
              "Lauren"
            ]
          }
        ],
        "birthDate": "1966-07-03",
        "resourceType": "Patient",
        "id": "DCFPI2LVEWAH3V23",
        "gender": "female"
      },
      "search": {
        "mode": "match"
      }
    },
    {
      "fullUrl": "http://localhost:9090/fhir/Patient/DCFPIXVY34SQMPSO",
      "resource": {
        "meta": {
          "versionId": "1",
          "lastUpdated": "2023-06-12T11:02:55.144Z"
        },
        "name": [
          {
            "family": "Cordova",
            "given": [
              "William"
            ]
          }
        ],
        "birthDate": "1959-07-09",
        "resourceType": "Patient",
        "id": "DCFPIXVY34SQMPSO",
        "gender": "male"
      },
      "search": {
        "mode": "match"
      }
    },
    {
      "fullUrl": "http://localhost:9090/fhir/Patient/DCFPIXVY34SQMPSS",
      "resource": {
        "meta": {
          "versionId": "1",
          "lastUpdated": "2023-06-12T11:02:55.144Z"
        },
        "name": [
          {
            "family": "Williams",
            "given": [
              "David"
            ]
          }
        ],
        "birthDate": "1956-12-02",
        "resourceType": "Patient",
        "id": "DCFPIXVY34SQMPSS",
        "gender": "male"
      },
      "search": {
        "mode": "match"
      }
    },
    {
      "fullUrl": "http://localhost:9090/fhir/Patient/DCFPIXVY34SQMPSQ",
      "resource": {
        "meta": {
          "versionId": "1",
          "lastUpdated": "2023-06-12T11:02:55.144Z"
        },
        "name": [
          {
            "family": "Lyons",
            "given": [
              "Jordan"
            ]
          }
        ],
        "birthDate": "1951-05-05",
        "resourceType": "Patient",
        "id": "DCFPIXVY34SQMPSQ",
        "gender": "male"
      },
      "search": {
        "mode": "match"
      }
    },
    {
      "fullUrl": "http://localhost:9090/fhir/Patient/DCFPI2LTTE3N3KDN",
      "resource": {
        "meta": {
          "versionId": "5",
          "lastUpdated": "2023-06-12T11:03:39.066Z"
        },
        "name": [
          {
            "family": "Hill",
            "given": [
              "Ryan"
            ]
          }
        ],
        "birthDate": "1941-07-20",
        "resourceType": "Patient",
        "id": "DCFPI2LTTE3N3KDN",
        "gender": "male"
      },
      "search": {
        "mode": "match"
      }
    },
    {
      "fullUrl": "http://localhost:9090/fhir/Patient/DCFPIXVY34SQMPSK",
      "resource": {
        "meta": {
          "versionId": "1",
          "lastUpdated": "2023-06-12T11:02:55.144Z"
        },
        "name": [
          {
            "family": "Hutchinson",
            "given": [
              "Jason"
            ]
          }
        ],
        "birthDate": "1939-06-28",
        "resourceType": "Patient",
        "id": "DCFPIXVY34SQMPSK",
        "gender": "male"
      },
      "search": {
        "mode": "match"
      }
    },
    {
      "fullUrl": "http://localhost:9090/fhir/Patient/DCFPI2LRYF7Y6L2J",
      "resource": {
        "meta": {
          "versionId": "4",
          "lastUpdated": "2023-06-12T11:03:39.037Z"
        },
        "name": [
          {
            "family": "Valdez",
            "given": [
              "Johnathan"
            ]
          }
        ],
        "birthDate": "1939-02-09",
        "resourceType": "Patient",
        "id": "DCFPI2LRYF7Y6L2J",
        "gender": "female"
      },
      "search": {
        "mode": "match"
      }
    },
    {
      "fullUrl": "http://localhost:9090/fhir/Patient/DCFPIXVY34SQMPSL",
      "resource": {
        "meta": {
          "versionId": "1",
          "lastUpdated": "2023-06-12T11:02:55.144Z"
        },
        "name": [
          {
            "family": "MD",
            "given": [
              "Mrs. Renee Wagner"
            ]
          }
        ],
        "birthDate": "1933-01-10",
        "resourceType": "Patient",
        "id": "DCFPIXVY34SQMPSL",
        "gender": "male"
      },
      "search": {
        "mode": "match"
      }
    },
    {
      "fullUrl": "http://localhost:9090/fhir/Patient/DCFPIXVY34SQMPSP",
      "resource": {
        "meta": {
          "versionId": "1",
          "lastUpdated": "2023-06-12T11:02:55.144Z"
        },
        "name": [
          {
            "family": "Smith",
            "given": [
              "Taylor"
            ]
          }
        ],
        "birthDate": "1923-10-14",
        "resourceType": "Patient",
        "id": "DCFPIXVY34SQMPSP",
        "gender": "female"
      },
      "search": {
        "mode": "match"
      }
    },
    {
      "fullUrl": "http://localhost:9090/fhir/Patient/DCFPIXVY34SQMPSR",
      "resource": {
        "meta": {
          "versionId": "1",
          "lastUpdated": "2023-06-12T11:02:55.144Z"
        },
        "name": [
          {
            "family": "Yu",
            "given": [
              "Christine"
            ]
          }
        ],
        "birthDate": "1922-10-14",
        "resourceType": "Patient",
        "id": "DCFPIXVY34SQMPSR",
        "gender": "female"
      },
      "search": {
        "mode": "match"
      }
    },
    {
      "fullUrl": "http://localhost:9090/fhir/Condition/DCFPIXWM7Q6NWZ2A",
      "resource": {
        "meta": {
          "versionId": "2",
          "lastUpdated": "2023-06-12T11:02:55.513Z"
        },
        "resourceType": "Condition",
        "id": "DCFPIXWM7Q6NWZ2A",
        "code": {
          "coding": [
            {
              "system": "http://id.who.int/icd/release/11/mms",
              "code": "RA01.0",
              "display": "COVID-19, virus identified"
            }
          ],
          "text": "COVID-19"
        },
        "subject": {
          "reference": "Patient/DCFPIXVY34SQMPSQ"
        }
      },
      "search": {
        "mode": "include"
      }
    },
    {
      "fullUrl": "http://localhost:9090/fhir/Condition/DCFPIXWM7Q6NWZXE",
      "resource": {
        "meta": {
          "versionId": "2",
          "lastUpdated": "2023-06-12T11:02:55.513Z"
        },
        "resourceType": "Condition",
        "id": "DCFPIXWM7Q6NWZXE",
        "code": {
          "coding": [
            {
              "system": "http://id.who.int/icd/release/11/mms",
              "code": "RA01.0",
              "display": "COVID-19, virus identified"
            }
          ],
          "text": "COVID-19"
        },
        "subject": {
          "reference": "Patient/DCFPIXVY34SQMPSK"
        }
      },
      "search": {
        "mode": "include"
      }
    },
    {
      "fullUrl": "http://localhost:9090/fhir/Condition/DCFPIXWM7Q6NWZYE",
      "resource": {
        "meta": {
          "versionId": "2",
          "lastUpdated": "2023-06-12T11:02:55.513Z"
        },
        "resourceType": "Condition",
        "id": "DCFPIXWM7Q6NWZYE",
        "code": {
          "coding": [
            {
              "system": "http://id.who.int/icd/release/11/mms",
              "code": "RA01.0",
              "display": "COVID-19, virus identified"
            }
          ],
          "text": "COVID-19"
        },
        "subject": {
          "reference": "Patient/DCFPIXVY34SQMPSM"
        }
      },
      "search": {
        "mode": "include"
      }
    },
    {
      "fullUrl": "http://localhost:9090/fhir/Condition/DCFPIXWM7Q6NWZZB",
      "resource": {
        "meta": {
          "versionId": "2",
          "lastUpdated": "2023-06-12T11:02:55.513Z"
        },
        "resourceType": "Condition",
        "id": "DCFPIXWM7Q6NWZZB",
        "code": {
          "coding": [
            {
              "system": "http://id.who.int/icd/release/11/mms",
              "code": "RA01.0",
              "display": "COVID-19, virus identified"
            }
          ],
          "text": "COVID-19"
        },
        "subject": {
          "reference": "Patient/DCFPIXVY34SQMPSO"
        }
      },
      "search": {
        "mode": "include"
      }
    },
    {
      "fullUrl": "http://localhost:9090/fhir/Condition/DCFPIXWM7Q6NWZ23",
      "resource": {
        "meta": {
          "versionId": "2",
          "lastUpdated": "2023-06-12T11:02:55.513Z"
        },
        "resourceType": "Condition",
        "id": "DCFPIXWM7Q6NWZ23",
        "code": {
          "coding": [
            {
              "system": "http://id.who.int/icd/release/11/mms",
              "code": "RA01.0",
              "display": "COVID-19, virus identified"
            }
          ],
          "text": "COVID-19"
        },
        "subject": {
          "reference": "Patient/DCFPIXVY34SQMPSS"
        }
      },
      "search": {
        "mode": "include"
      }
    },
    {
      "fullUrl": "http://localhost:9090/fhir/Condition/DCFPIXWM7Q6NWZXU",
      "resource": {
        "meta": {
          "versionId": "2",
          "lastUpdated": "2023-06-12T11:02:55.513Z"
        },
        "resourceType": "Condition",
        "id": "DCFPIXWM7Q6NWZXU",
        "code": {
          "coding": [
            {
              "system": "http://id.who.int/icd/release/11/mms",
              "code": "RA01.0",
              "display": "COVID-19, virus identified"
            }
          ],
          "text": "COVID-19"
        },
        "subject": {
          "reference": "Patient/DCFPIXVY34SQMPSL"
        }
      },
      "search": {
        "mode": "include"
      }
    },
    {
      "fullUrl": "http://localhost:9090/fhir/Condition/DCFPIXWM7Q6NWZ2N",
      "resource": {
        "meta": {
          "versionId": "2",
          "lastUpdated": "2023-06-12T11:02:55.513Z"
        },
        "resourceType": "Condition",
        "id": "DCFPIXWM7Q6NWZ2N",
        "code": {
          "coding": [
            {
              "system": "http://id.who.int/icd/release/11/mms",
              "code": "RA01.0",
              "display": "COVID-19, virus identified"
            }
          ],
          "text": "COVID-19"
        },
        "subject": {
          "reference": "Patient/DCFPIXVY34SQMPSR"
        }
      },
      "search": {
        "mode": "include"
      }
    },
    {
      "fullUrl": "http://localhost:9090/fhir/Condition/DCFPIXWM7Q6NWZZR",
      "resource": {
        "meta": {
          "versionId": "2",
          "lastUpdated": "2023-06-12T11:02:55.513Z"
        },
        "resourceType": "Condition",
        "id": "DCFPIXWM7Q6NWZZR",
        "code": {
          "coding": [
            {
              "system": "http://id.who.int/icd/release/11/mms",
              "code": "RA01.0",
              "display": "COVID-19, virus identified"
            }
          ],
          "text": "COVID-19"
        },
        "subject": {
          "reference": "Patient/DCFPIXVY34SQMPSP"
        }
      },
      "search": {
        "mode": "include"
      }
    },
    {
      "fullUrl": "http://localhost:9090/fhir/Condition/DCFPIXWM7Q6NWZ3I",
      "resource": {
        "meta": {
          "versionId": "2",
          "lastUpdated": "2023-06-12T11:02:55.513Z"
        },
        "resourceType": "Condition",
        "id": "DCFPIXWM7Q6NWZ3I",
        "code": {
          "coding": [
            {
              "system": "http://id.who.int/icd/release/11/mms",
              "code": "RA01.0",
              "display": "COVID-19, virus identified"
            }
          ],
          "text": "COVID-19"
        },
        "subject": {
          "reference": "Patient/DCFPIXVY34SQMPST"
        }
      },
      "search": {
        "mode": "include"
      }
    }
  ],
  "link": [
    {
      "relation": "self",
      "url": "http://localhost:9090/fhir/Patient?birthdate=lt1990-01-01&_revinclude=Condition%3Asubject&_count=5000&__t=13&__page-id=DCFPIXVY34SQMPST"
    },
    {
      "relation": "first",
      "url": "http://localhost:9090/fhir/Patient/__page?birthdate=lt1990-01-01&_revinclude=Condition%3Asubject&_count=5000&__t=13"
    }
  ],
  "total": 12,
  "resourceType": "Bundle"
}