{
    "entry": [
        {
            "fullUrl": "Patient/AJ810475",
            "request": {
                "method": "PUT",
                "url": "Patient/AJ810475"
            },
            "resource": {
                "gender": "male",
                "id": "AJ810475",
                "meta": {
                    "profile": [
                        "https://www.medizininformatik-initiative.de/fhir/core/StructureDefinition/Patient"
                    ]
                },
                "resourceType": "Patient",
                "birthDate": "2018-06-27",
                "link": [
                    {
                        "other": {
                            "reference": "HIVdemo"
                        },
                        "type": "refer"
                    }
                ]
            }
        },
        {
            "fullUrl": "MolecularSequence/AJ810475",
            "request": {
                "method": "PUT",
                "url": "MolecularSequence/AJ810475"
            },
            "resource": {
                "id": "AJ810475",
                "resourceType": "MolecularSequence",
                "coordinateSystem": 0,
                "patient": {
                    "reference": "Patient/AJ810475"
                },
                "variant": [
                    {
                        "observedAllele": "CCR5"
                    }
                ],
                "observedSeq": "CTRPNNN-TRKS-I-TI---GPGRAFYTTG---EIIGDIRKAHC"
            }
        },
        {
            "fullUrl": "Patient/AJ810480",
            "request": {
                "method": "PUT",
                "url": "Patient/AJ810480"
            },
            "resource": {
                "gender": "male",
                "id": "AJ810480",
                "meta": {
                    "profile": [
                        "https://www.medizininformatik-initiative.de/fhir/core/StructureDefinition/Patient"
                    ]
                },
                "resourceType": "Patient",
                "birthDate": "1945-02-16",
                "link": [
                    {
                        "other": {
                            "reference": "HIVdemo"
                        },
                        "type": "refer"
                    }
                ]
            }
        },
        {
            "fullUrl": "MolecularSequence/AJ810480",
            "request": {
                "method": "PUT",
                "url": "MolecularSequence/AJ810480"
            },
            "resource": {
                "id": "AJ810480",
                "resourceType": "MolecularSequence",
                "coordinateSystem": 0,
                "patient": {
                    "reference": "Patient/AJ810480"
                },
                "variant": [
                    {
                        "observedAllele": "CCR5"
                    }
                ],
                "observedSeq": "CTRPSNN-TRKS-V-HI---GPGRALYTT----DIIGDIRKAYC"
            }
        },
        {
            "fullUrl": "Patient/AM156915",
            "request": {
                "method": "PUT",
                "url": "Patient/AM156915"
            },
            "resource": {
                "gender": "female",
                "id": "AM156915",
                "meta": {
                    "profile": [
                        "https://www.medizininformatik-initiative.de/fhir/core/StructureDefinition/Patient"
                    ]
                },
                "resourceType": "Patient",
                "birthDate": "2011-01-26",
                "link": [
                    {
                        "other": {
                            "reference": "HIVdemo"
                        },
                        "type": "refer"
                    }
                ]
            }
        },
        {
            "fullUrl": "MolecularSequence/AM156915",
            "request": {
                "method": "PUT",
                "url": "MolecularSequence/AM156915"
            },
            "resource": {
                "id": "AM156915",
                "resourceType": "MolecularSequence",
                "coordinateSystem": 0,
                "patient": {
                    "reference": "Patient/AM156915"
                },
                "variant": [
                    {
                        "observedAllele": "CXCR4"
                    }
                ],
                "observedSeq": "CTRPNNY-TRKG-I-RI---GPGRAVYAAE---KIVGNIRQAHC"
            }
        },
        {
            "fullUrl": "Patient/AM156919",
            "request": {
                "method": "PUT",
                "url": "Patient/AM156919"
            },
            "resource": {
                "gender": "male",
                "id": "AM156919",
                "meta": {
                    "profile": [
                        "https://www.medizininformatik-initiative.de/fhir/core/StructureDefinition/Patient"
                    ]
                },
                "resourceType": "Patient",
                "birthDate": "2005-08-17",
                "link": [
                    {
                        "other": {
                            "reference": "HIVdemo"
                        },
                        "type": "refer"
                    }
                ]
            }
        },
        {
            "fullUrl": "MolecularSequence/AM156919",
            "request": {
                "method": "PUT",
                "url": "MolecularSequence/AM156919"
            },
            "resource": {
                "id": "AM156919",
                "resourceType": "MolecularSequence",
                "coordinateSystem": 0,
                "patient": {
                    "reference": "Patient/AM156919"
                },
                "variant": [
                    {
                        "observedAllele": "CXCR4"
                    }
                ],
                "observedSeq": "CTRPHNT-IKRR-I-HI---GPGRAFYTTK---GIQGDLRQAHC"
            }
        },
        {
            "fullUrl": "Patient/AY010759",
            "request": {
                "method": "PUT",
                "url": "Patient/AY010759"
            },
            "resource": {
                "gender": "female",
                "id": "AY010759",
                "meta": {
                    "profile": [
                        "https://www.medizininformatik-initiative.de/fhir/core/StructureDefinition/Patient"
                    ]
                },
                "resourceType": "Patient",
                "birthDate": "2010-01-09",
                "link": [
                    {
                        "other": {
                            "reference": "HIVdemo"
                        },
                        "type": "refer"
                    }
                ]
            }
        },
        {
            "fullUrl": "MolecularSequence/AY010759",
            "request": {
                "method": "PUT",
                "url": "MolecularSequence/AY010759"
            },
            "resource": {
                "id": "AY010759",
                "resourceType": "MolecularSequence",
                "coordinateSystem": 0,
                "patient": {
                    "reference": "Patient/AY010759"
                },
                "variant": [
                    {
                        "observedAllele": "CCR5"
                    }
                ],
                "observedSeq": "CIRPNNN-TRKS-I-HM---GPGKAFYATG---DIIGDIRQAYC"
            }
        },
        {
            "fullUrl": "Patient/AY010804",
            "request": {
                "method": "PUT",
                "url": "Patient/AY010804"
            },
            "resource": {
                "gender": "female",
                "id": "AY010804",
                "meta": {
                    "profile": [
                        "https://www.medizininformatik-initiative.de/fhir/core/StructureDefinition/Patient"
                    ]
                },
                "resourceType": "Patient",
                "birthDate": "2003-03-02",
                "link": [
                    {
                        "other": {
                            "reference": "HIVdemo"
                        },
                        "type": "refer"
                    }
                ]
            }
        },
        {
            "fullUrl": "MolecularSequence/AY010804",
            "request": {
                "method": "PUT",
                "url": "MolecularSequence/AY010804"
            },
            "resource": {
                "id": "AY010804",
                "resourceType": "MolecularSequence",
                "coordinateSystem": 0,
                "patient": {
                    "reference": "Patient/AY010804"
                },
                "variant": [
                    {
                        "observedAllele": "CCR5"
                    }
                ],
                "observedSeq": "CTRPNNN-TRKG-I-HL---GPGSAFYATG---DIIGDIRQAHC"
            }
        },
        {
            "fullUrl": "Patient/AY010852",
            "request": {
                "method": "PUT",
                "url": "Patient/AY010852"
            },
            "resource": {
                "gender": "female",
                "id": "AY010852",
                "meta": {
                    "profile": [
                        "https://www.medizininformatik-initiative.de/fhir/core/StructureDefinition/Patient"
                    ]
                },
                "resourceType": "Patient",
                "birthDate": "2012-02-16",
                "link": [
                    {
                        "other": {
                            "reference": "HIVdemo"
                        },
                        "type": "refer"
                    }
                ]
            }
        },
        {
            "fullUrl": "MolecularSequence/AY010852",
            "request": {
                "method": "PUT",
                "url": "MolecularSequence/AY010852"
            },
            "resource": {
                "id": "AY010852",
                "resourceType": "MolecularSequence",
                "coordinateSystem": 0,
                "patient": {
                    "reference": "Patient/AY010852"
                },
                "variant": [
                    {
                        "observedAllele": "CCR5"
                    }
                ],
                "observedSeq": "CTRPSNN-TRKS-I-YI---GPGRAFYATG---SIIGDIRQAHC"
            }
        },
        {
            "fullUrl": "Patient/AY124975",
            "request": {
                "method": "PUT",
                "url": "Patient/AY124975"
            },
            "resource": {
                "gender": "female",
                "id": "AY124975",
                "meta": {
                    "profile": [
                        "https://www.medizininformatik-initiative.de/fhir/core/StructureDefinition/Patient"
                    ]
                },
                "resourceType": "Patient",
                "birthDate": "1980-11-01",
                "link": [
                    {
                        "other": {
                            "reference": "HIVdemo"
                        },
                        "type": "refer"
                    }
                ]
            }
        },
        {
            "fullUrl": "MolecularSequence/AY124975",
            "request": {
                "method": "PUT",
                "url": "MolecularSequence/AY124975"
            },
            "resource": {
                "id": "AY124975",
                "resourceType": "MolecularSequence",
                "coordinateSystem": 0,
                "patient": {
                    "reference": "Patient/AY124975"
                },
                "variant": [
                    {
                        "observedAllele": "CCR5"
                    }
                ],
                "observedSeq": "CTRPNNN-TRKG-I-HM---GPGGALYATG---AIIGNIRQAHC"
            }
        },
        {
            "fullUrl": "Patient/AY173951",
            "request": {
                "method": "PUT",
                "url": "Patient/AY173951"
            },
            "resource": {
                "gender": "female",
                "id": "AY173951",
                "meta": {
                    "profile": [
                        "https://www.medizininformatik-initiative.de/fhir/core/StructureDefinition/Patient"
                    ]
                },
                "resourceType": "Patient",
                "birthDate": "2008-08-11",
                "link": [
                    {
                        "other": {
                            "reference": "HIVdemo"
                        },
                        "type": "refer"
                    }
                ]
            }
        },
        {
            "fullUrl": "MolecularSequence/AY173951",
            "request": {
                "method": "PUT",
                "url": "MolecularSequence/AY173951"
            },
            "resource": {
                "id": "AY173951",
                "resourceType": "MolecularSequence",
                "coordinateSystem": 0,
                "patient": {
                    "reference": "Patient/AY173951"
                },
                "variant": [
                    {
                        "observedAllele": "CXCR4"
                    }
                ],
                "observedSeq": "CTRPNNY-TRKR-I-TM---GPGRVYYTTG---EIIGDIRRAHC"
            }
        },
        {
            "fullUrl": "Patient/AY173952",
            "request": {
                "method": "PUT",
                "url": "Patient/AY173952"
            },
            "resource": {
                "gender": "male",
                "id": "AY173952",
                "meta": {
                    "profile": [
                        "https://www.medizininformatik-initiative.de/fhir/core/StructureDefinition/Patient"
                    ]
                },
                "resourceType": "Patient",
                "birthDate": "2009-03-24",
                "link": [
                    {
                        "other": {
                            "reference": "HIVdemo"
                        },
                        "type": "refer"
                    }
                ]
            }
        },
        {
            "fullUrl": "MolecularSequence/AY173952",
            "request": {
                "method": "PUT",
                "url": "MolecularSequence/AY173952"
            },
            "resource": {
                "id": "AY173952",
                "resourceType": "MolecularSequence",
                "coordinateSystem": 0,
                "patient": {
                    "reference": "Patient/AY173952"
                },
                "variant": [
                    {
                        "observedAllele": "CCR5"
                    }
                ],
                "observedSeq": "CTRPSNN-TRKS-I-HI---GPGRAFYTTG---NIIGDIRQAHC"
            }
        },
        {
            "fullUrl": "Patient/AY173955",
            "request": {
                "method": "PUT",
                "url": "Patient/AY173955"
            },
            "resource": {
                "gender": "male",
                "id": "AY173955",
                "meta": {
                    "profile": [
                        "https://www.medizininformatik-initiative.de/fhir/core/StructureDefinition/Patient"
                    ]
                },
                "resourceType": "Patient",
                "birthDate": "2013-08-10",
                "link": [
                    {
                        "other": {
                            "reference": "HIVdemo"
                        },
                        "type": "refer"
                    }
                ]
            }
        },
        {
            "fullUrl": "MolecularSequence/AY173955",
            "request": {
                "method": "PUT",
                "url": "MolecularSequence/AY173955"
            },
            "resource": {
                "id": "AY173955",
                "resourceType": "MolecularSequence",
                "coordinateSystem": 0,
                "patient": {
                    "reference": "Patient/AY173955"
                },
                "variant": [
                    {
                        "observedAllele": "CCR5"
                    }
                ],
                "observedSeq": "CIRPNNN-TRKS-I-HI---GPGRAFYATG---DIIGDIRQAHC"
            }
        },
        {
            "fullUrl": "Patient/AY173956",
            "request": {
                "method": "PUT",
                "url": "Patient/AY173956"
            },
            "resource": {
                "gender": "female",
                "id": "AY173956",
                "meta": {
                    "profile": [
                        "https://www.medizininformatik-initiative.de/fhir/core/StructureDefinition/Patient"
                    ]
                },
                "resourceType": "Patient",
                "birthDate": "1987-03-20",
                "link": [
                    {
                        "other": {
                            "reference": "HIVdemo"
                        },
                        "type": "refer"
                    }
                ]
            }
        },
        {
            "fullUrl": "MolecularSequence/AY173956",
            "request": {
                "method": "PUT",
                "url": "MolecularSequence/AY173956"
            },
            "resource": {
                "id": "AY173956",
                "resourceType": "MolecularSequence",
                "coordinateSystem": 0,
                "patient": {
                    "reference": "Patient/AY173956"
                },
                "variant": [
                    {
                        "observedAllele": "CXCR4"
                    }
                ],
                "observedSeq": "CTRPNNK-ARRR-I-RI---GPGRTFY-TG---KIVGDIRQAYC"
            }
        },
        {
            "fullUrl": "Patient/AY426110",
            "request": {
                "method": "PUT",
                "url": "Patient/AY426110"
            },
            "resource": {
                "gender": "male",
                "id": "AY426110",
                "meta": {
                    "profile": [
                        "https://www.medizininformatik-initiative.de/fhir/core/StructureDefinition/Patient"
                    ]
                },
                "resourceType": "Patient",
                "birthDate": "1992-11-03",
                "link": [
                    {
                        "other": {
                            "reference": "HIVdemo"
                        },
                        "type": "refer"
                    }
                ]
            }
        },
        {
            "fullUrl": "MolecularSequence/AY426110",
            "request": {
                "method": "PUT",
                "url": "MolecularSequence/AY426110"
            },
            "resource": {
                "id": "AY426110",
                "resourceType": "MolecularSequence",
                "coordinateSystem": 0,
                "patient": {
                    "reference": "Patient/AY426110"
                },
                "variant": [
                    {
                        "observedAllele": "CCR5"
                    }
                ],
                "observedSeq": "CTRPNNN-TRKS-I-HI---GPGRALYTTG---EIIGDIRQAHC"
            }
        },
        {
            "fullUrl": "Patient/AY426126",
            "request": {
                "method": "PUT",
                "url": "Patient/AY426126"
            },
            "resource": {
                "gender": "female",
                "id": "AY426126",
                "meta": {
                    "profile": [
                        "https://www.medizininformatik-initiative.de/fhir/core/StructureDefinition/Patient"
                    ]
                },
                "resourceType": "Patient",
                "birthDate": "1957-04-09",
                "link": [
                    {
                        "other": {
                            "reference": "HIVdemo"
                        },
                        "type": "refer"
                    }
                ]
            }
        },
        {
            "fullUrl": "MolecularSequence/AY426126",
            "request": {
                "method": "PUT",
                "url": "MolecularSequence/AY426126"
            },
            "resource": {
                "id": "AY426126",
                "resourceType": "MolecularSequence",
                "coordinateSystem": 0,
                "patient": {
                    "reference": "Patient/AY426126"
                },
                "variant": [
                    {
                        "observedAllele": "CCR5 CXCR4"
                    }
                ],
                "observedSeq": "CTRPNNN-TRKS-I-HI---GPRRAFYTTG---EIIGDIRQAHC"
            }
        },
        {
            "fullUrl": "Patient/AY669709",
            "request": {
                "method": "PUT",
                "url": "Patient/AY669709"
            },
            "resource": {
                "gender": "male",
                "id": "AY669709",
                "meta": {
                    "profile": [
                        "https://www.medizininformatik-initiative.de/fhir/core/StructureDefinition/Patient"
                    ]
                },
                "resourceType": "Patient",
                "birthDate": "2008-08-24",
                "link": [
                    {
                        "other": {
                            "reference": "HIVdemo"
                        },
                        "type": "refer"
                    }
                ]
            }
        },
        {
            "fullUrl": "MolecularSequence/AY669709",
            "request": {
                "method": "PUT",
                "url": "MolecularSequence/AY669709"
            },
            "resource": {
                "id": "AY669709",
                "resourceType": "MolecularSequence",
                "coordinateSystem": 0,
                "patient": {
                    "reference": "Patient/AY669709"
                },
                "variant": [
                    {
                        "observedAllele": "CCR5"
                    }
                ],
                "observedSeq": "CTRPNNN-TRKS-I-SI---GPGRAFYATG---DIIGDIRQAHC"
            }
        },
        {
            "fullUrl": "Patient/AY669711",
            "request": {
                "method": "PUT",
                "url": "Patient/AY669711"
            },
            "resource": {
                "gender": "female",
                "id": "AY669711",
                "meta": {
                    "profile": [
                        "https://www.medizininformatik-initiative.de/fhir/core/StructureDefinition/Patient"
                    ]
                },
                "resourceType": "Patient",
                "birthDate": "1976-08-03",
                "link": [
                    {
                        "other": {
                            "reference": "HIVdemo"
                        },
                        "type": "refer"
                    }
                ]
            }
        },
        {
            "fullUrl": "MolecularSequence/AY669711",
            "request": {
                "method": "PUT",
                "url": "MolecularSequence/AY669711"
            },
            "resource": {
                "id": "AY669711",
                "resourceType": "MolecularSequence",
                "coordinateSystem": 0,
                "patient": {
                    "reference": "Patient/AY669711"
                },
                "variant": [
                    {
                        "observedAllele": "CCR5"
                    }
                ],
                "observedSeq": "CTRPNNN-TRKS-I-HM---GPGKVFYTTG---EIIGDIRQAHC"
            }
        },
        {
            "fullUrl": "Patient/AY669713",
            "request": {
                "method": "PUT",
                "url": "Patient/AY669713"
            },
            "resource": {
                "gender": "male",
                "id": "AY669713",
                "meta": {
                    "profile": [
                        "https://www.medizininformatik-initiative.de/fhir/core/StructureDefinition/Patient"
                    ]
                },
                "resourceType": "Patient",
                "birthDate": "2003-08-29",
                "link": [
                    {
                        "other": {
                            "reference": "HIVdemo"
                        },
                        "type": "refer"
                    }
                ]
            }
        },
        {
            "fullUrl": "MolecularSequence/AY669713",
            "request": {
                "method": "PUT",
                "url": "MolecularSequence/AY669713"
            },
            "resource": {
                "id": "AY669713",
                "resourceType": "MolecularSequence",
                "coordinateSystem": 0,
                "patient": {
                    "reference": "Patient/AY669713"
                },
                "variant": [
                    {
                        "observedAllele": "CCR5"
                    }
                ],
                "observedSeq": "CTRPNNN-TRRS-I-HI---GPGRAFYATG---DIIGDIRQAHC"
            }
        },
        {
            "fullUrl": "Patient/AY669715",
            "request": {
                "method": "PUT",
                "url": "Patient/AY669715"
            },
            "resource": {
                "gender": "male",
                "id": "AY669715",
                "meta": {
                    "profile": [
                        "https://www.medizininformatik-initiative.de/fhir/core/StructureDefinition/Patient"
                    ]
                },
                "resourceType": "Patient",
                "birthDate": "1966-06-24",
                "link": [
                    {
                        "other": {
                            "reference": "HIVdemo"
                        },
                        "type": "refer"
                    }
                ]
            }
        },
        {
            "fullUrl": "MolecularSequence/AY669715",
            "request": {
                "method": "PUT",
                "url": "MolecularSequence/AY669715"
            },
            "resource": {
                "id": "AY669715",
                "resourceType": "MolecularSequence",
                "coordinateSystem": 0,
                "patient": {
                    "reference": "Patient/AY669715"
                },
                "variant": [
                    {
                        "observedAllele": "CCR5"
                    }
                ],
                "observedSeq": "CTRPNNN-TRKS-I-HM---G-GRAFYATG---EIIGNIRQAHC"
            }
        },
        {
            "fullUrl": "Patient/AY669725",
            "request": {
                "method": "PUT",
                "url": "Patient/AY669725"
            },
            "resource": {
                "gender": "female",
                "id": "AY669725",
                "meta": {
                    "profile": [
                        "https://www.medizininformatik-initiative.de/fhir/core/StructureDefinition/Patient"
                    ]
                },
                "resourceType": "Patient",
                "birthDate": "1943-10-25",
                "link": [
                    {
                        "other": {
                            "reference": "HIVdemo"
                        },
                        "type": "refer"
                    }
                ]
            }
        },
        {
            "fullUrl": "MolecularSequence/AY669725",
            "request": {
                "method": "PUT",
                "url": "MolecularSequence/AY669725"
            },
            "resource": {
                "id": "AY669725",
                "resourceType": "MolecularSequence",
                "coordinateSystem": 0,
                "patient": {
                    "reference": "Patient/AY669725"
                },
                "variant": [
                    {
                        "observedAllele": "CCR5"
                    }
                ],
                "observedSeq": "CIRPNNN-TRKS-I-HI---GPGRAFYTTG---DIIGDIRKAHC"
            }
        },
        {
            "fullUrl": "Patient/AY669735",
            "request": {
                "method": "PUT",
                "url": "Patient/AY669735"
            },
            "resource": {
                "gender": "male",
                "id": "AY669735",
                "meta": {
                    "profile": [
                        "https://www.medizininformatik-initiative.de/fhir/core/StructureDefinition/Patient"
                    ]
                },
                "resourceType": "Patient",
                "birthDate": "1956-08-13",
                "link": [
                    {
                        "other": {
                            "reference": "HIVdemo"
                        },
                        "type": "refer"
                    }
                ]
            }
        },
        {
            "fullUrl": "MolecularSequence/AY669735",
            "request": {
                "method": "PUT",
                "url": "MolecularSequence/AY669735"
            },
            "resource": {
                "id": "AY669735",
                "resourceType": "MolecularSequence",
                "coordinateSystem": 0,
                "patient": {
                    "reference": "Patient/AY669735"
                },
                "variant": [
                    {
                        "observedAllele": "CXCR4"
                    }
                ],
                "observedSeq": "CTRPNNN-TRKS-I-RIQ-RGPGRAFVTI----GKIGNMRQAHC"
            }
        },
        {
            "fullUrl": "Patient/AY669736",
            "request": {
                "method": "PUT",
                "url": "Patient/AY669736"
            },
            "resource": {
                "gender": "male",
                "id": "AY669736",
                "meta": {
                    "profile": [
                        "https://www.medizininformatik-initiative.de/fhir/core/StructureDefinition/Patient"
                    ]
                },
                "resourceType": "Patient",
                "birthDate": "1970-09-07",
                "link": [
                    {
                        "other": {
                            "reference": "HIVdemo"
                        },
                        "type": "refer"
                    }
                ]
            }
        },
        {
            "fullUrl": "MolecularSequence/AY669736",
            "request": {
                "method": "PUT",
                "url": "MolecularSequence/AY669736"
            },
            "resource": {
                "id": "AY669736",
                "resourceType": "MolecularSequence",
                "coordinateSystem": 0,
                "patient": {
                    "reference": "Patient/AY669736"
                },
                "variant": [
                    {
                        "observedAllele": "CCR5"
                    }
                ],
                "observedSeq": "CTRPNNN-TRKS-I-TI---GPGRAFYATG---DIIGDIRQAHC"
            }
        },
        {
            "fullUrl": "Patient/AY713408",
            "request": {
                "method": "PUT",
                "url": "Patient/AY713408"
            },
            "resource": {
                "gender": "female",
                "id": "AY713408",
                "meta": {
                    "profile": [
                        "https://www.medizininformatik-initiative.de/fhir/core/StructureDefinition/Patient"
                    ]
                },
                "resourceType": "Patient",
                "birthDate": "1962-02-26",
                "link": [
                    {
                        "other": {
                            "reference": "HIVdemo"
                        },
                        "type": "refer"
                    }
                ]
            }
        },
        {
            "fullUrl": "MolecularSequence/AY713408",
            "request": {
                "method": "PUT",
                "url": "MolecularSequence/AY713408"
            },
            "resource": {
                "id": "AY713408",
                "resourceType": "MolecularSequence",
                "coordinateSystem": 0,
                "patient": {
                    "reference": "Patient/AY713408"
                },
                "variant": [
                    {
                        "observedAllele": "CCR5"
                    }
                ],
                "observedSeq": "CTRPNNN-TRKS-I-QL---GPGRAWYTTG---QIIGDIRQAHC"
            }
        },
        {
            "fullUrl": "Patient/AY713410",
            "request": {
                "method": "PUT",
                "url": "Patient/AY713410"
            },
            "resource": {
                "gender": "female",
                "id": "AY713410",
                "meta": {
                    "profile": [
                        "https://www.medizininformatik-initiative.de/fhir/core/StructureDefinition/Patient"
                    ]
                },
                "resourceType": "Patient",
                "birthDate": "1977-02-13",
                "link": [
                    {
                        "other": {
                            "reference": "HIVdemo"
                        },
                        "type": "refer"
                    }
                ]
            }
        },
        {
            "fullUrl": "MolecularSequence/AY713410",
            "request": {
                "method": "PUT",
                "url": "MolecularSequence/AY713410"
            },
            "resource": {
                "id": "AY713410",
                "resourceType": "MolecularSequence",
                "coordinateSystem": 0,
                "patient": {
                    "reference": "Patient/AY713410"
                },
                "variant": [
                    {
                        "observedAllele": "CCR5"
                    }
                ],
                "observedSeq": "CTRPNNN-TRKG-I-HM---GPGRAFYATG---TIIGDIRQAHC"
            }
        },
        {
            "fullUrl": "Patient/AY713411",
            "request": {
                "method": "PUT",
                "url": "Patient/AY713411"
            },
            "resource": {
                "gender": "female",
                "id": "AY713411",
                "meta": {
                    "profile": [
                        "https://www.medizininformatik-initiative.de/fhir/core/StructureDefinition/Patient"
                    ]
                },
                "resourceType": "Patient",
                "birthDate": "1979-01-28",
                "link": [
                    {
                        "other": {
                            "reference": "HIVdemo"
                        },
                        "type": "refer"
                    }
                ]
            }
        },
        {
            "fullUrl": "MolecularSequence/AY713411",
            "request": {
                "method": "PUT",
                "url": "MolecularSequence/AY713411"
            },
            "resource": {
                "id": "AY713411",
                "resourceType": "MolecularSequence",
                "coordinateSystem": 0,
                "patient": {
                    "reference": "Patient/AY713411"
                },
                "variant": [
                    {
                        "observedAllele": "CCR5"
                    }
                ],
                "observedSeq": "CTRPNNN-TRKS-I-HI---GPGRAFYTTG---DIIGDIRQAHC"
            }
        },
        {
            "fullUrl": "Patient/AY713412",
            "request": {
                "method": "PUT",
                "url": "Patient/AY713412"
            },
            "resource": {
                "gender": "female",
                "id": "AY713412",
                "meta": {
                    "profile": [
                        "https://www.medizininformatik-initiative.de/fhir/core/StructureDefinition/Patient"
                    ]
                },
                "resourceType": "Patient",
                "birthDate": "2018-06-21",
                "link": [
                    {
                        "other": {
                            "reference": "HIVdemo"
                        },
                        "type": "refer"
                    }
                ]
            }
        },
        {
            "fullUrl": "MolecularSequence/AY713412",
            "request": {
                "method": "PUT",
                "url": "MolecularSequence/AY713412"
            },
            "resource": {
                "id": "AY713412",
                "resourceType": "MolecularSequence",
                "coordinateSystem": 0,
                "patient": {
                    "reference": "Patient/AY713412"
                },
                "variant": [
                    {
                        "observedAllele": "CCR5"
                    }
                ],
                "observedSeq": "CTRPNNN-TRKS-I-HM---GPGRAFYTTG---DIIGDIRKAHC"
            }
        },
        {
            "fullUrl": "Patient/AY835434",
            "request": {
                "method": "PUT",
                "url": "Patient/AY835434"
            },
            "resource": {
                "gender": "male",
                "id": "AY835434",
                "meta": {
                    "profile": [
                        "https://www.medizininformatik-initiative.de/fhir/core/StructureDefinition/Patient"
                    ]
                },
                "resourceType": "Patient",
                "birthDate": "1946-07-23",
                "link": [
                    {
                        "other": {
                            "reference": "HIVdemo"
                        },
                        "type": "refer"
                    }
                ]
            }
        },
        {
            "fullUrl": "MolecularSequence/AY835434",
            "request": {
                "method": "PUT",
                "url": "MolecularSequence/AY835434"
            },
            "resource": {
                "id": "AY835434",
                "resourceType": "MolecularSequence",
                "coordinateSystem": 0,
                "patient": {
                    "reference": "Patient/AY835434"
                },
                "variant": [
                    {
                        "observedAllele": "CCR5"
                    }
                ],
                "observedSeq": "CTRPNNN-TRKS-I-HM---GPGAAFYARG---EVIGDIRQAHC"
            }
        },
        {
            "fullUrl": "Patient/AY835436",
            "request": {
                "method": "PUT",
                "url": "Patient/AY835436"
            },
            "resource": {
                "gender": "male",
                "id": "AY835436",
                "meta": {
                    "profile": [
                        "https://www.medizininformatik-initiative.de/fhir/core/StructureDefinition/Patient"
                    ]
                },
                "resourceType": "Patient",
                "birthDate": "1977-11-22",
                "link": [
                    {
                        "other": {
                            "reference": "HIVdemo"
                        },
                        "type": "refer"
                    }
                ]
            }
        },
        {
            "fullUrl": "MolecularSequence/AY835436",
            "request": {
                "method": "PUT",
                "url": "MolecularSequence/AY835436"
            },
            "resource": {
                "id": "AY835436",
                "resourceType": "MolecularSequence",
                "coordinateSystem": 0,
                "patient": {
                    "reference": "Patient/AY835436"
                },
                "variant": [
                    {
                        "observedAllele": "CCR5"
                    }
                ],
                "observedSeq": "CTRPNNN-TRKS-I-NI---GPGRAFVATG---AIIGDIRQAHC"
            }
        },
        {
            "fullUrl": "Patient/AY835437",
            "request": {
                "method": "PUT",
                "url": "Patient/AY835437"
            },
            "resource": {
                "gender": "male",
                "id": "AY835437",
                "meta": {
                    "profile": [
                        "https://www.medizininformatik-initiative.de/fhir/core/StructureDefinition/Patient"
                    ]
                },
                "resourceType": "Patient",
                "birthDate": "1978-07-13",
                "link": [
                    {
                        "other": {
                            "reference": "HIVdemo"
                        },
                        "type": "refer"
                    }
                ]
            }
        },
        {
            "fullUrl": "MolecularSequence/AY835437",
            "request": {
                "method": "PUT",
                "url": "MolecularSequence/AY835437"
            },
            "resource": {
                "id": "AY835437",
                "resourceType": "MolecularSequence",
                "coordinateSystem": 0,
                "patient": {
                    "reference": "Patient/AY835437"
                },
                "variant": [
                    {
                        "observedAllele": "CCR5"
                    }
                ],
                "observedSeq": "CTRPNNN-TRKG-I-HI---GPGRAFYTTG---QIIGDIRQAHC"
            }
        },
        {
            "fullUrl": "Patient/AY835438",
            "request": {
                "method": "PUT",
                "url": "Patient/AY835438"
            },
            "resource": {
                "gender": "female",
                "id": "AY835438",
                "meta": {
                    "profile": [
                        "https://www.medizininformatik-initiative.de/fhir/core/StructureDefinition/Patient"
                    ]
                },
                "resourceType": "Patient",
                "birthDate": "1996-07-15",
                "link": [
                    {
                        "other": {
                            "reference": "HIVdemo"
                        },
                        "type": "refer"
                    }
                ]
            }
        },
        {
            "fullUrl": "MolecularSequence/AY835438",
            "request": {
                "method": "PUT",
                "url": "MolecularSequence/AY835438"
            },
            "resource": {
                "id": "AY835438",
                "resourceType": "MolecularSequence",
                "coordinateSystem": 0,
                "patient": {
                    "reference": "Patient/AY835438"
                },
                "variant": [
                    {
                        "observedAllele": "CCR5"
                    }
                ],
                "observedSeq": "CTRPNNN-TRKS-I-NL---GPGRAFYATG---DIIGDIRQAHC"
            }
        },
        {
            "fullUrl": "Patient/AY835439",
            "request": {
                "method": "PUT",
                "url": "Patient/AY835439"
            },
            "resource": {
                "gender": "male",
                "id": "AY835439",
                "meta": {
                    "profile": [
                        "https://www.medizininformatik-initiative.de/fhir/core/StructureDefinition/Patient"
                    ]
                },
                "resourceType": "Patient",
                "birthDate": "1972-11-15",
                "link": [
                    {
                        "other": {
                            "reference": "HIVdemo"
                        },
                        "type": "refer"
                    }
                ]
            }
        },
        {
            "fullUrl": "MolecularSequence/AY835439",
            "request": {
                "method": "PUT",
                "url": "MolecularSequence/AY835439"
            },
            "resource": {
                "id": "AY835439",
                "resourceType": "MolecularSequence",
                "coordinateSystem": 0,
                "patient": {
                    "reference": "Patient/AY835439"
                },
                "variant": [
                    {
                        "observedAllele": "CCR5"
                    }
                ],
                "observedSeq": "CTRPGNN-TRKS-I-HI---GPGRAFYATG---DIIGDIRQAHC"
            }
        },
        {
            "fullUrl": "Patient/AY835441",
            "request": {
                "method": "PUT",
                "url": "Patient/AY835441"
            },
            "resource": {
                "gender": "male",
                "id": "AY835441",
                "meta": {
                    "profile": [
                        "https://www.medizininformatik-initiative.de/fhir/core/StructureDefinition/Patient"
                    ]
                },
                "resourceType": "Patient",
                "birthDate": "1971-08-03",
                "link": [
                    {
                        "other": {
                            "reference": "HIVdemo"
                        },
                        "type": "refer"
                    }
                ]
            }
        },
        {
            "fullUrl": "MolecularSequence/AY835441",
            "request": {
                "method": "PUT",
                "url": "MolecularSequence/AY835441"
            },
            "resource": {
                "id": "AY835441",
                "resourceType": "MolecularSequence",
                "coordinateSystem": 0,
                "patient": {
                    "reference": "Patient/AY835441"
                },
                "variant": [
                    {
                        "observedAllele": "CCR5"
                    }
                ],
                "observedSeq": "CTRPNNN-TRKG-I-TI---GPGRVFY-TG---EIVGDIRQVHC"
            }
        },
        {
            "fullUrl": "Patient/AY835442",
            "request": {
                "method": "PUT",
                "url": "Patient/AY835442"
            },
            "resource": {
                "gender": "female",
                "id": "AY835442",
                "meta": {
                    "profile": [
                        "https://www.medizininformatik-initiative.de/fhir/core/StructureDefinition/Patient"
                    ]
                },
                "resourceType": "Patient",
                "birthDate": "1989-04-04",
                "link": [
                    {
                        "other": {
                            "reference": "HIVdemo"
                        },
                        "type": "refer"
                    }
                ]
            }
        },
        {
            "fullUrl": "MolecularSequence/AY835442",
            "request": {
                "method": "PUT",
                "url": "MolecularSequence/AY835442"
            },
            "resource": {
                "id": "AY835442",
                "resourceType": "MolecularSequence",
                "coordinateSystem": 0,
                "patient": {
                    "reference": "Patient/AY835442"
                },
                "variant": [
                    {
                        "observedAllele": "CCR5"
                    }
                ],
                "observedSeq": "CTRPNNN-TRKS-I-HI---GPGRAFYATG---GVIGDIRQAHC"
            }
        },
        {
            "fullUrl": "Patient/AY835443",
            "request": {
                "method": "PUT",
                "url": "Patient/AY835443"
            },
            "resource": {
                "gender": "female",
                "id": "AY835443",
                "meta": {
                    "profile": [
                        "https://www.medizininformatik-initiative.de/fhir/core/StructureDefinition/Patient"
                    ]
                },
                "resourceType": "Patient",
                "birthDate": "2018-06-23",
                "link": [
                    {
                        "other": {
                            "reference": "HIVdemo"
                        },
                        "type": "refer"
                    }
                ]
            }
        },
        {
            "fullUrl": "MolecularSequence/AY835443",
            "request": {
                "method": "PUT",
                "url": "MolecularSequence/AY835443"
            },
            "resource": {
                "id": "AY835443",
                "resourceType": "MolecularSequence",
                "coordinateSystem": 0,
                "patient": {
                    "reference": "Patient/AY835443"
                },
                "variant": [
                    {
                        "observedAllele": "CCR5"
                    }
                ],
                "observedSeq": "CERPNNN-TIKS-I-HL---GPGRAWHATG---QIIGDIRKAFC"
            }
        },
        {
            "fullUrl": "Patient/AY835446",
            "request": {
                "method": "PUT",
                "url": "Patient/AY835446"
            },
            "resource": {
                "gender": "male",
                "id": "AY835446",
                "meta": {
                    "profile": [
                        "https://www.medizininformatik-initiative.de/fhir/core/StructureDefinition/Patient"
                    ]
                },
                "resourceType": "Patient",
                "birthDate": "2004-05-12",
                "link": [
                    {
                        "other": {
                            "reference": "HIVdemo"
                        },
                        "type": "refer"
                    }
                ]
            }
        },
        {
            "fullUrl": "MolecularSequence/AY835446",
            "request": {
                "method": "PUT",
                "url": "MolecularSequence/AY835446"
            },
            "resource": {
                "id": "AY835446",
                "resourceType": "MolecularSequence",
                "coordinateSystem": 0,
                "patient": {
                    "reference": "Patient/AY835446"
                },
                "variant": [
                    {
                        "observedAllele": "CCR5"
                    }
                ],
                "observedSeq": "CIRPNNN-TRKG-I-HI---GPGRAFYTTG---DIIGDIRQAHC"
            }
        },
        {
            "fullUrl": "Patient/AY835447",
            "request": {
                "method": "PUT",
                "url": "Patient/AY835447"
            },
            "resource": {
                "gender": "male",
                "id": "AY835447",
                "meta": {
                    "profile": [
                        "https://www.medizininformatik-initiative.de/fhir/core/StructureDefinition/Patient"
                    ]
                },
                "resourceType": "Patient",
                "birthDate": "1990-02-19",
                "link": [
                    {
                        "other": {
                            "reference": "HIVdemo"
                        },
                        "type": "refer"
                    }
                ]
            }
        },
        {
            "fullUrl": "MolecularSequence/AY835447",
            "request": {
                "method": "PUT",
                "url": "MolecularSequence/AY835447"
            },
            "resource": {
                "id": "AY835447",
                "resourceType": "MolecularSequence",
                "coordinateSystem": 0,
                "patient": {
                    "reference": "Patient/AY835447"
                },
                "variant": [
                    {
                        "observedAllele": "CCR5"
                    }
                ],
                "observedSeq": "CTRHNNN-TRKS-I-NI---GPGRAFYATG---KIIGDIRQAHC"
            }
        },
        {
            "fullUrl": "Patient/AY835448",
            "request": {
                "method": "PUT",
                "url": "Patient/AY835448"
            },
            "resource": {
                "gender": "female",
                "id": "AY835448",
                "meta": {
                    "profile": [
                        "https://www.medizininformatik-initiative.de/fhir/core/StructureDefinition/Patient"
                    ]
                },
                "resourceType": "Patient",
                "birthDate": "1952-06-18",
                "link": [
                    {
                        "other": {
                            "reference": "HIVdemo"
                        },
                        "type": "refer"
                    }
                ]
            }
        },
        {
            "fullUrl": "MolecularSequence/AY835448",
            "request": {
                "method": "PUT",
                "url": "MolecularSequence/AY835448"
            },
            "resource": {
                "id": "AY835448",
                "resourceType": "MolecularSequence",
                "coordinateSystem": 0,
                "patient": {
                    "reference": "Patient/AY835448"
                },
                "variant": [
                    {
                        "observedAllele": "CCR5"
                    }
                ],
                "observedSeq": "CTRPNNN-TSKS-I-HM---GPGGAFFATG---RIIGDIRKAYC"
            }
        },
        {
            "fullUrl": "Patient/AY835449",
            "request": {
                "method": "PUT",
                "url": "Patient/AY835449"
            },
            "resource": {
                "gender": "female",
                "id": "AY835449",
                "meta": {
                    "profile": [
                        "https://www.medizininformatik-initiative.de/fhir/core/StructureDefinition/Patient"
                    ]
                },
                "resourceType": "Patient",
                "birthDate": "2008-03-04",
                "link": [
                    {
                        "other": {
                            "reference": "HIVdemo"
                        },
                        "type": "refer"
                    }
                ]
            }
        },
        {
            "fullUrl": "MolecularSequence/AY835449",
            "request": {
                "method": "PUT",
                "url": "MolecularSequence/AY835449"
            },
            "resource": {
                "id": "AY835449",
                "resourceType": "MolecularSequence",
                "coordinateSystem": 0,
                "patient": {
                    "reference": "Patient/AY835449"
                },
                "variant": [
                    {
                        "observedAllele": "CCR5"
                    }
                ],
                "observedSeq": "CTRPNNN-TRKS-I-HI---APGRAFYATG---EIIGDIRKAYC"
            }
        },
        {
            "fullUrl": "Patient/AY835450",
            "request": {
                "method": "PUT",
                "url": "Patient/AY835450"
            },
            "resource": {
                "gender": "female",
                "id": "AY835450",
                "meta": {
                    "profile": [
                        "https://www.medizininformatik-initiative.de/fhir/core/StructureDefinition/Patient"
                    ]
                },
                "resourceType": "Patient",
                "birthDate": "2018-03-11",
                "link": [
                    {
                        "other": {
                            "reference": "HIVdemo"
                        },
                        "type": "refer"
                    }
                ]
            }
        },
        {
            "fullUrl": "MolecularSequence/AY835450",
            "request": {
                "method": "PUT",
                "url": "MolecularSequence/AY835450"
            },
            "resource": {
                "id": "AY835450",
                "resourceType": "MolecularSequence",
                "coordinateSystem": 0,
                "patient": {
                    "reference": "Patient/AY835450"
                },
                "variant": [
                    {
                        "observedAllele": "CCR5"
                    }
                ],
                "observedSeq": "CTRPHNN-TRKS-I-HI---GPGRAWYATG---DIIGDIRKAYC"
            }
        },
        {
            "fullUrl": "Patient/AY835451",
            "request": {
                "method": "PUT",
                "url": "Patient/AY835451"
            },
            "resource": {
                "gender": "male",
                "id": "AY835451",
                "meta": {
                    "profile": [
                        "https://www.medizininformatik-initiative.de/fhir/core/StructureDefinition/Patient"
                    ]
                },
                "resourceType": "Patient",
                "birthDate": "2014-05-29",
                "link": [
                    {
                        "other": {
                            "reference": "HIVdemo"
                        },
                        "type": "refer"
                    }
                ]
            }
        },
        {
            "fullUrl": "MolecularSequence/AY835451",
            "request": {
                "method": "PUT",
                "url": "MolecularSequence/AY835451"
            },
            "resource": {
                "id": "AY835451",
                "resourceType": "MolecularSequence",
                "coordinateSystem": 0,
                "patient": {
                    "reference": "Patient/AY835451"
                },
                "variant": [
                    {
                        "observedAllele": "CCR5"
                    }
                ],
                "observedSeq": "CTRPGNN-TRRS-I-NI---GPGRAFYATG---AIIGDIRKAHC"
            }
        },
        {
            "fullUrl": "Patient/AY835452",
            "request": {
                "method": "PUT",
                "url": "Patient/AY835452"
            },
            "resource": {
                "gender": "female",
                "id": "AY835452",
                "meta": {
                    "profile": [
                        "https://www.medizininformatik-initiative.de/fhir/core/StructureDefinition/Patient"
                    ]
                },
                "resourceType": "Patient",
                "birthDate": "1960-03-10",
                "link": [
                    {
                        "other": {
                            "reference": "HIVdemo"
                        },
                        "type": "refer"
                    }
                ]
            }
        },
        {
            "fullUrl": "MolecularSequence/AY835452",
            "request": {
                "method": "PUT",
                "url": "MolecularSequence/AY835452"
            },
            "resource": {
                "id": "AY835452",
                "resourceType": "MolecularSequence",
                "coordinateSystem": 0,
                "patient": {
                    "reference": "Patient/AY835452"
                },
                "variant": [
                    {
                        "observedAllele": "CCR5"
                    }
                ],
                "observedSeq": "CTRPNNN-TSKS-I-TI---GPGRAFYATG---RIIGDIRKAHC"
            }
        }
    ],
    "id": "1745daeb492a",
    "resourceType": "Bundle",
    "type": "transaction"
}
