{"entry":[    {"fullUrl": "Patient/A04321",
                                        "request":{"method":"PUT",
                                            "url": "Patient/A04321"},
                                        "resource":{"gender":"male",
                                            "id": "A04321",
                                            "meta":{"profile":["https://www.medizininformatik-initiative.de/fhir/core/StructureDefinition/Patient"]},
                                        "resourceType":"Patient",
                                            "birthDate": "1995-11-19",
                                            "link": [{
                                                "other": {
                                                    "reference": "HIVdemo" },
                                                    "type": "refer"}]}},
                                    
                                    {"fullUrl": "MolecularSequence/A04321",
                                        "request":{"method":"PUT",
                                            "url": "MolecularSequence/A04321"},
                                        "resource":{"id": "A04321",
                                        "resourceType":"MolecularSequence",
                                            "coordinateSystem": 0,
                                            "patient":{"reference": "Patient/A04321"},
                                            "variant":[{
                                                "observedAllele":"CXCR4"
                                            }],
                                            "observedSeq":"CTRPNNN-TRKS-I-RIQ-RGPGRAFVTI----GKIGNMRQAHC"}},                                      
                                {"fullUrl": "Patient/AB553911",
                                        "request":{"method":"PUT",
                                            "url": "Patient/AB553911"},
                                        "resource":{"gender":"female",
                                            "id": "AB553911",
                                            "meta":{"profile":["https://www.medizininformatik-initiative.de/fhir/core/StructureDefinition/Patient"]},
                                        "resourceType":"Patient",
                                            "birthDate": "1996-02-08",
                                            "link": [{
                                                "other": {
                                                    "reference": "HIVdemo" },
                                                    "type": "refer"}]}},
                                    
                                    {"fullUrl": "MolecularSequence/AB553911",
                                        "request":{"method":"PUT",
                                            "url": "MolecularSequence/AB553911"},
                                        "resource":{"id": "AB553911",
                                        "resourceType":"MolecularSequence",
                                            "coordinateSystem": 0,
                                            "patient":{"reference": "Patient/AB553911"},
                                            "variant":[{
                                                "observedAllele":"CCR5"
                                            }],
                                            "observedSeq":"CERPNNN-TRRS-I-QI---GPGRAWFEAE---DIIGDIRKAHC"}},                                      
                                {"fullUrl": "Patient/AB553912",
                                        "request":{"method":"PUT",
                                            "url": "Patient/AB553912"},
                                        "resource":{"gender":"male",
                                            "id": "AB553912",
                                            "meta":{"profile":["https://www.medizininformatik-initiative.de/fhir/core/StructureDefinition/Patient"]},
                                        "resourceType":"Patient",
                                            "birthDate": "1978-04-22",
                                            "link": [{
                                                "other": {
                                                    "reference": "HIVdemo" },
                                                    "type": "refer"}]}},
                                    
                                    {"fullUrl": "MolecularSequence/AB553912",
                                        "request":{"method":"PUT",
                                            "url": "MolecularSequence/AB553912"},
                                        "resource":{"id": "AB553912",
                                        "resourceType":"MolecularSequence",
                                            "coordinateSystem": 0,
                                            "patient":{"reference": "Patient/AB553912"},
                                            "variant":[{
                                                "observedAllele":"CCR5"
                                            }],
                                            "observedSeq":"CTRPNDN-TRKS-I-NI---APGRAFYATG---DIIGDIRQAHC"}},                                      
                                {"fullUrl": "Patient/AB553913",
                                        "request":{"method":"PUT",
                                            "url": "Patient/AB553913"},
                                        "resource":{"gender":"female",
                                            "id": "AB553913",
                                            "meta":{"profile":["https://www.medizininformatik-initiative.de/fhir/core/StructureDefinition/Patient"]},
                                        "resourceType":"Patient",
                                            "birthDate": "1990-06-23",
                                            "link": [{
                                                "other": {
                                                    "reference": "HIVdemo" },
                                                    "type": "refer"}]}},
                                    
                                    {"fullUrl": "MolecularSequence/AB553913",
                                        "request":{"method":"PUT",
                                            "url": "MolecularSequence/AB553913"},
                                        "resource":{"id": "AB553913",
                                        "resourceType":"MolecularSequence",
                                            "coordinateSystem": 0,
                                            "patient":{"reference": "Patient/AB553913"},
                                            "variant":[{
                                                "observedAllele":"CCR5"
                                            }],
                                            "observedSeq":"CTRPNNN-TRKG-I-HM---GPGRAIYTT----DIIGDIRQAHC"}},                                      
                                {"fullUrl": "Patient/AB553914",
                                        "request":{"method":"PUT",
                                            "url": "Patient/AB553914"},
                                        "resource":{"gender":"female",
                                            "id": "AB553914",
                                            "meta":{"profile":["https://www.medizininformatik-initiative.de/fhir/core/StructureDefinition/Patient"]},
                                        "resourceType":"Patient",
                                            "birthDate": "2016-11-14",
                                            "link": [{
                                                "other": {
                                                    "reference": "HIVdemo" },
                                                    "type": "refer"}]}},
                                    
                                    {"fullUrl": "MolecularSequence/AB553914",
                                        "request":{"method":"PUT",
                                            "url": "MolecularSequence/AB553914"},
                                        "resource":{"id": "AB553914",
                                        "resourceType":"MolecularSequence",
                                            "coordinateSystem": 0,
                                            "patient":{"reference": "Patient/AB553914"},
                                            "variant":[{
                                                "observedAllele":"CCR5"
                                            }],
                                            "observedSeq":"CTRPNNN-TRKG-I-HF---GPGQALYTTG---AIIGDIREAHC"}},                                      
                                {"fullUrl": "Patient/AF021477",
                                        "request":{"method":"PUT",
                                            "url": "Patient/AF021477"},
                                        "resource":{"gender":"female",
                                            "id": "AF021477",
                                            "meta":{"profile":["https://www.medizininformatik-initiative.de/fhir/core/StructureDefinition/Patient"]},
                                        "resourceType":"Patient",
                                            "birthDate": "1954-03-20",
                                            "link": [{
                                                "other": {
                                                    "reference": "HIVdemo" },
                                                    "type": "refer"}]}},
                                    
                                    {"fullUrl": "MolecularSequence/AF021477",
                                        "request":{"method":"PUT",
                                            "url": "MolecularSequence/AF021477"},
                                        "resource":{"id": "AF021477",
                                        "resourceType":"MolecularSequence",
                                            "coordinateSystem": 0,
                                            "patient":{"reference": "Patient/AF021477"},
                                            "variant":[{
                                                "observedAllele":"CCR5"
                                            }],
                                            "observedSeq":"CTRPNNN-TRKS-I-HI---GPGRAFYTTG---QIIGDIRQAYC"}},                                      
                                {"fullUrl": "Patient/AF022257",
                                        "request":{"method":"PUT",
                                            "url": "Patient/AF022257"},
                                        "resource":{"gender":"male",
                                            "id": "AF022257",
                                            "meta":{"profile":["https://www.medizininformatik-initiative.de/fhir/core/StructureDefinition/Patient"]},
                                        "resourceType":"Patient",
                                            "birthDate": "2000-08-27",
                                            "link": [{
                                                "other": {
                                                    "reference": "HIVdemo" },
                                                    "type": "refer"}]}},
                                    
                                    {"fullUrl": "MolecularSequence/AF022257",
                                        "request":{"method":"PUT",
                                            "url": "MolecularSequence/AF022257"},
                                        "resource":{"id": "AF022257",
                                        "resourceType":"MolecularSequence",
                                            "coordinateSystem": 0,
                                            "patient":{"reference": "Patient/AF022257"},
                                            "variant":[{
                                                "observedAllele":"CCR5"
                                            }],
                                            "observedSeq":"CTRPNNN-TRKS-I-SI---GPGRAFYTTG---EIIGDIRQAHC"}},                                      
                                {"fullUrl": "Patient/AF034375",
                                        "request":{"method":"PUT",
                                            "url": "Patient/AF034375"},
                                        "resource":{"gender":"male",
                                            "id": "AF034375",
                                            "meta":{"profile":["https://www.medizininformatik-initiative.de/fhir/core/StructureDefinition/Patient"]},
                                        "resourceType":"Patient",
                                            "birthDate": "1989-11-24",
                                            "link": [{
                                                "other": {
                                                    "reference": "HIVdemo" },
                                                    "type": "refer"}]}},
                                    
                                    {"fullUrl": "MolecularSequence/AF034375",
                                        "request":{"method":"PUT",
                                            "url": "MolecularSequence/AF034375"},
                                        "resource":{"id": "AF034375",
                                        "resourceType":"MolecularSequence",
                                            "coordinateSystem": 0,
                                            "patient":{"reference": "Patient/AF034375"},
                                            "variant":[{
                                                "observedAllele":"CXCR4"
                                            }],
                                            "observedSeq":"CTRPNNY-KRKR-I-TT---GPGKVLYTTG---QIIGDIRRAHC"}},                                      
                                {"fullUrl": "Patient/AF035532",
                                        "request":{"method":"PUT",
                                            "url": "Patient/AF035532"},
                                        "resource":{"gender":"female",
                                            "id": "AF035532",
                                            "meta":{"profile":["https://www.medizininformatik-initiative.de/fhir/core/StructureDefinition/Patient"]},
                                        "resourceType":"Patient",
                                            "birthDate": "1941-08-16",
                                            "link": [{
                                                "other": {
                                                    "reference": "HIVdemo" },
                                                    "type": "refer"}]}},
                                    
                                    {"fullUrl": "MolecularSequence/AF035532",
                                        "request":{"method":"PUT",
                                            "url": "MolecularSequence/AF035532"},
                                        "resource":{"id": "AF035532",
                                        "resourceType":"MolecularSequence",
                                            "coordinateSystem": 0,
                                            "patient":{"reference": "Patient/AF035532"},
                                            "variant":[{
                                                "observedAllele":"CCR5 CXCR4"
                                            }],
                                            "observedSeq":"CTRPNNN-IRKR-I-HI---GPGRAFYTTG---QIIGNIRQAHC"}},                                      
                                {"fullUrl": "Patient/AF075720",
                                        "request":{"method":"PUT",
                                            "url": "Patient/AF075720"},
                                        "resource":{"gender":"female",
                                            "id": "AF075720",
                                            "meta":{"profile":["https://www.medizininformatik-initiative.de/fhir/core/StructureDefinition/Patient"]},
                                        "resourceType":"Patient",
                                            "birthDate": "1947-10-14",
                                            "link": [{
                                                "other": {
                                                    "reference": "HIVdemo" },
                                                    "type": "refer"}]}},
                                    
                                    {"fullUrl": "MolecularSequence/AF075720",
                                        "request":{"method":"PUT",
                                            "url": "MolecularSequence/AF075720"},
                                        "resource":{"id": "AF075720",
                                        "resourceType":"MolecularSequence",
                                            "coordinateSystem": 0,
                                            "patient":{"reference": "Patient/AF075720"},
                                            "variant":[{
                                                "observedAllele":"CXCR4"
                                            }],
                                            "observedSeq":"CTRPNYN-KRKR-I-HI---GPGRAFYTTK---NIKGTIRQAHC"}},                                      
                                {"fullUrl": "Patient/AF082353",
                                        "request":{"method":"PUT",
                                            "url": "Patient/AF082353"},
                                        "resource":{"gender":"female",
                                            "id": "AF082353",
                                            "meta":{"profile":["https://www.medizininformatik-initiative.de/fhir/core/StructureDefinition/Patient"]},
                                        "resourceType":"Patient",
                                            "birthDate": "2008-09-23",
                                            "link": [{
                                                "other": {
                                                    "reference": "HIVdemo" },
                                                    "type": "refer"}]}},
                                    
                                    {"fullUrl": "MolecularSequence/AF082353",
                                        "request":{"method":"PUT",
                                            "url": "MolecularSequence/AF082353"},
                                        "resource":{"id": "AF082353",
                                        "resourceType":"MolecularSequence",
                                            "coordinateSystem": 0,
                                            "patient":{"reference": "Patient/AF082353"},
                                            "variant":[{
                                                "observedAllele":"CCR5 CXCR4"
                                            }],
                                            "observedSeq":"CTRPNNN-TRKS-I-HI---GPGRAFYTTG---DIIGDIRQAHC"}},                                      
                                {"fullUrl": "Patient/AF082354",
                                        "request":{"method":"PUT",
                                            "url": "Patient/AF082354"},
                                        "resource":{"gender":"female",
                                            "id": "AF082354",
                                            "meta":{"profile":["https://www.medizininformatik-initiative.de/fhir/core/StructureDefinition/Patient"]},
                                        "resourceType":"Patient",
                                            "birthDate": "1980-02-23",
                                            "link": [{
                                                "other": {
                                                    "reference": "HIVdemo" },
                                                    "type": "refer"}]}},
                                    
                                    {"fullUrl": "MolecularSequence/AF082354",
                                        "request":{"method":"PUT",
                                            "url": "MolecularSequence/AF082354"},
                                        "resource":{"id": "AF082354",
                                        "resourceType":"MolecularSequence",
                                            "coordinateSystem": 0,
                                            "patient":{"reference": "Patient/AF082354"},
                                            "variant":[{
                                                "observedAllele":"CCR5"
                                            }],
                                            "observedSeq":"CTRPNNN-TRRS-I-NI---GPGRAFYTTG---DIIGDIRQAHC"}},                                      
                                {"fullUrl": "Patient/AF082360",
                                        "request":{"method":"PUT",
                                            "url": "Patient/AF082360"},
                                        "resource":{"gender":"male",
                                            "id": "AF082360",
                                            "meta":{"profile":["https://www.medizininformatik-initiative.de/fhir/core/StructureDefinition/Patient"]},
                                        "resourceType":"Patient",
                                            "birthDate": "1960-03-17",
                                            "link": [{
                                                "other": {
                                                    "reference": "HIVdemo" },
                                                    "type": "refer"}]}},
                                    
                                    {"fullUrl": "MolecularSequence/AF082360",
                                        "request":{"method":"PUT",
                                            "url": "MolecularSequence/AF082360"},
                                        "resource":{"id": "AF082360",
                                        "resourceType":"MolecularSequence",
                                            "coordinateSystem": 0,
                                            "patient":{"reference": "Patient/AF082360"},
                                            "variant":[{
                                                "observedAllele":"CCR5"
                                            }],
                                            "observedSeq":"CTRPNNN-TRKS-I-HI---GPGRAFYTTG---DIVGDIRQAHC"}},                                      
                                {"fullUrl": "Patient/AF082361",
                                        "request":{"method":"PUT",
                                            "url": "Patient/AF082361"},
                                        "resource":{"gender":"male",
                                            "id": "AF082361",
                                            "meta":{"profile":["https://www.medizininformatik-initiative.de/fhir/core/StructureDefinition/Patient"]},
                                        "resourceType":"Patient",
                                            "birthDate": "1950-05-27",
                                            "link": [{
                                                "other": {
                                                    "reference": "HIVdemo" },
                                                    "type": "refer"}]}},
                                    
                                    {"fullUrl": "MolecularSequence/AF082361",
                                        "request":{"method":"PUT",
                                            "url": "MolecularSequence/AF082361"},
                                        "resource":{"id": "AF082361",
                                        "resourceType":"MolecularSequence",
                                            "coordinateSystem": 0,
                                            "patient":{"reference": "Patient/AF082361"},
                                            "variant":[{
                                                "observedAllele":"CCR5"
                                            }],
                                            "observedSeq":"CIRPNNN-TRKS-I-HI---GPGRAFYAAG---DIIGDIRQAHC"}},                                      
                                {"fullUrl": "Patient/AF082371",
                                        "request":{"method":"PUT",
                                            "url": "Patient/AF082371"},
                                        "resource":{"gender":"female",
                                            "id": "AF082371",
                                            "meta":{"profile":["https://www.medizininformatik-initiative.de/fhir/core/StructureDefinition/Patient"]},
                                        "resourceType":"Patient",
                                            "birthDate": "2015-02-15",
                                            "link": [{
                                                "other": {
                                                    "reference": "HIVdemo" },
                                                    "type": "refer"}]}},
                                    
                                    {"fullUrl": "MolecularSequence/AF082371",
                                        "request":{"method":"PUT",
                                            "url": "MolecularSequence/AF082371"},
                                        "resource":{"id": "AF082371",
                                        "resourceType":"MolecularSequence",
                                            "coordinateSystem": 0,
                                            "patient":{"reference": "Patient/AF082371"},
                                            "variant":[{
                                                "observedAllele":"CCR5 CXCR4"
                                            }],
                                            "observedSeq":"CTRPKNN-TRRS-I-HI---GPGGAFYTTG---DIIGAIRQAYC"}},                                      
                                {"fullUrl": "Patient/AF082379",
                                        "request":{"method":"PUT",
                                            "url": "Patient/AF082379"},
                                        "resource":{"gender":"male",
                                            "id": "AF082379",
                                            "meta":{"profile":["https://www.medizininformatik-initiative.de/fhir/core/StructureDefinition/Patient"]},
                                        "resourceType":"Patient",
                                            "birthDate": "1947-05-28",
                                            "link": [{
                                                "other": {
                                                    "reference": "HIVdemo" },
                                                    "type": "refer"}]}},
                                    
                                    {"fullUrl": "MolecularSequence/AF082379",
                                        "request":{"method":"PUT",
                                            "url": "MolecularSequence/AF082379"},
                                        "resource":{"id": "AF082379",
                                        "resourceType":"MolecularSequence",
                                            "coordinateSystem": 0,
                                            "patient":{"reference": "Patient/AF082379"},
                                            "variant":[{
                                                "observedAllele":"CCR5"
                                            }],
                                            "observedSeq":"CTRPNNN-TRKS-I-PM---GPGRAFYATG---QIIGDIRQAYC"}},                                      
                                {"fullUrl": "Patient/AF082381",
                                        "request":{"method":"PUT",
                                            "url": "Patient/AF082381"},
                                        "resource":{"gender":"female",
                                            "id": "AF082381",
                                            "meta":{"profile":["https://www.medizininformatik-initiative.de/fhir/core/StructureDefinition/Patient"]},
                                        "resourceType":"Patient",
                                            "birthDate": "1991-07-24",
                                            "link": [{
                                                "other": {
                                                    "reference": "HIVdemo" },
                                                    "type": "refer"}]}},
                                    
                                    {"fullUrl": "MolecularSequence/AF082381",
                                        "request":{"method":"PUT",
                                            "url": "MolecularSequence/AF082381"},
                                        "resource":{"id": "AF082381",
                                        "resourceType":"MolecularSequence",
                                            "coordinateSystem": 0,
                                            "patient":{"reference": "Patient/AF082381"},
                                            "variant":[{
                                                "observedAllele":"CCR5"
                                            }],
                                            "observedSeq":"CTRPNNN-TRKG-I-HI---GPGRAFYAT----DIIGDIRQAHC"}},                                      
                                {"fullUrl": "Patient/AF082382",
                                        "request":{"method":"PUT",
                                            "url": "Patient/AF082382"},
                                        "resource":{"gender":"female",
                                            "id": "AF082382",
                                            "meta":{"profile":["https://www.medizininformatik-initiative.de/fhir/core/StructureDefinition/Patient"]},
                                        "resourceType":"Patient",
                                            "birthDate": "1959-11-07",
                                            "link": [{
                                                "other": {
                                                    "reference": "HIVdemo" },
                                                    "type": "refer"}]}},
                                    
                                    {"fullUrl": "MolecularSequence/AF082382",
                                        "request":{"method":"PUT",
                                            "url": "MolecularSequence/AF082382"},
                                        "resource":{"id": "AF082382",
                                        "resourceType":"MolecularSequence",
                                            "coordinateSystem": 0,
                                            "patient":{"reference": "Patient/AF082382"},
                                            "variant":[{
                                                "observedAllele":"CCR5"
                                            }],
                                            "observedSeq":"CTRPNNN-TRKS-I-HI---APGRAFYATG---EIIGNIRQAHC"}},                                      
                                {"fullUrl": "Patient/AF082384",
                                        "request":{"method":"PUT",
                                            "url": "Patient/AF082384"},
                                        "resource":{"gender":"male",
                                            "id": "AF082384",
                                            "meta":{"profile":["https://www.medizininformatik-initiative.de/fhir/core/StructureDefinition/Patient"]},
                                        "resourceType":"Patient",
                                            "birthDate": "2003-01-23",
                                            "link": [{
                                                "other": {
                                                    "reference": "HIVdemo" },
                                                    "type": "refer"}]}},
                                    
                                    {"fullUrl": "MolecularSequence/AF082384",
                                        "request":{"method":"PUT",
                                            "url": "MolecularSequence/AF082384"},
                                        "resource":{"id": "AF082384",
                                        "resourceType":"MolecularSequence",
                                            "coordinateSystem": 0,
                                            "patient":{"reference": "Patient/AF082384"},
                                            "variant":[{
                                                "observedAllele":"CCR5"
                                            }],
                                            "observedSeq":"CTRLNNY-TKEV-V-SM---GPGRAFFTTG---DIIGAIRRAHC"}},                                      
                                {"fullUrl": "Patient/AF082390",
                                        "request":{"method":"PUT",
                                            "url": "Patient/AF082390"},
                                        "resource":{"gender":"female",
                                            "id": "AF082390",
                                            "meta":{"profile":["https://www.medizininformatik-initiative.de/fhir/core/StructureDefinition/Patient"]},
                                        "resourceType":"Patient",
                                            "birthDate": "1950-09-07",
                                            "link": [{
                                                "other": {
                                                    "reference": "HIVdemo" },
                                                    "type": "refer"}]}},
                                    
                                    {"fullUrl": "MolecularSequence/AF082390",
                                        "request":{"method":"PUT",
                                            "url": "MolecularSequence/AF082390"},
                                        "resource":{"id": "AF082390",
                                        "resourceType":"MolecularSequence",
                                            "coordinateSystem": 0,
                                            "patient":{"reference": "Patient/AF082390"},
                                            "variant":[{
                                                "observedAllele":"CXCR4"
                                            }],
                                            "observedSeq":"CTRPNNN-TRKS-I-HI---GPGGAFYATG---DIIGDIRQAHC"}},                                      
                                {"fullUrl": "Patient/AF082837",
                                        "request":{"method":"PUT",
                                            "url": "Patient/AF082837"},
                                        "resource":{"gender":"male",
                                            "id": "AF082837",
                                            "meta":{"profile":["https://www.medizininformatik-initiative.de/fhir/core/StructureDefinition/Patient"]},
                                        "resourceType":"Patient",
                                            "birthDate": "1959-02-05",
                                            "link": [{
                                                "other": {
                                                    "reference": "HIVdemo" },
                                                    "type": "refer"}]}},
                                    
                                    {"fullUrl": "MolecularSequence/AF082837",
                                        "request":{"method":"PUT",
                                            "url": "MolecularSequence/AF082837"},
                                        "resource":{"id": "AF082837",
                                        "resourceType":"MolecularSequence",
                                            "coordinateSystem": 0,
                                            "patient":{"reference": "Patient/AF082837"},
                                            "variant":[{
                                                "observedAllele":"CCR5"
                                            }],
                                            "observedSeq":"CTRPNNN-TRKS-I-HI---GPGRAFYATG---DNIGDIRQAHC"}},                                      
                                {"fullUrl": "Patient/AF082840",
                                        "request":{"method":"PUT",
                                            "url": "Patient/AF082840"},
                                        "resource":{"gender":"female",
                                            "id": "AF082840",
                                            "meta":{"profile":["https://www.medizininformatik-initiative.de/fhir/core/StructureDefinition/Patient"]},
                                        "resourceType":"Patient",
                                            "birthDate": "1946-07-14",
                                            "link": [{
                                                "other": {
                                                    "reference": "HIVdemo" },
                                                    "type": "refer"}]}},
                                    
                                    {"fullUrl": "MolecularSequence/AF082840",
                                        "request":{"method":"PUT",
                                            "url": "MolecularSequence/AF082840"},
                                        "resource":{"id": "AF082840",
                                        "resourceType":"MolecularSequence",
                                            "coordinateSystem": 0,
                                            "patient":{"reference": "Patient/AF082840"},
                                            "variant":[{
                                                "observedAllele":"CCR5"
                                            }],
                                            "observedSeq":"CTRPNNN-TRKS-I-HI---GPGKAFYATG---DVIGDIRKAHC"}},                                      
                                {"fullUrl": "Patient/AF112542",
                                        "request":{"method":"PUT",
                                            "url": "Patient/AF112542"},
                                        "resource":{"gender":"male",
                                            "id": "AF112542",
                                            "meta":{"profile":["https://www.medizininformatik-initiative.de/fhir/core/StructureDefinition/Patient"]},
                                        "resourceType":"Patient",
                                            "birthDate": "1959-08-29",
                                            "link": [{
                                                "other": {
                                                    "reference": "HIVdemo" },
                                                    "type": "refer"}]}},
                                    
                                    {"fullUrl": "MolecularSequence/AF112542",
                                        "request":{"method":"PUT",
                                            "url": "MolecularSequence/AF112542"},
                                        "resource":{"id": "AF112542",
                                        "resourceType":"MolecularSequence",
                                            "coordinateSystem": 0,
                                            "patient":{"reference": "Patient/AF112542"},
                                            "variant":[{
                                                "observedAllele":"CCR5"
                                            }],
                                            "observedSeq":"CTRPNNN-TRKS-I-PM---GPGKAFYATG---DIIGDIRQAHC"}},                                      
                                {"fullUrl": "Patient/AF112548",
                                        "request":{"method":"PUT",
                                            "url": "Patient/AF112548"},
                                        "resource":{"gender":"female",
                                            "id": "AF112548",
                                            "meta":{"profile":["https://www.medizininformatik-initiative.de/fhir/core/StructureDefinition/Patient"]},
                                        "resourceType":"Patient",
                                            "birthDate": "1971-06-23",
                                            "link": [{
                                                "other": {
                                                    "reference": "HIVdemo" },
                                                    "type": "refer"}]}},
                                    
                                    {"fullUrl": "MolecularSequence/AF112548",
                                        "request":{"method":"PUT",
                                            "url": "MolecularSequence/AF112548"},
                                        "resource":{"id": "AF112548",
                                        "resourceType":"MolecularSequence",
                                            "coordinateSystem": 0,
                                            "patient":{"reference": "Patient/AF112548"},
                                            "variant":[{
                                                "observedAllele":"CCR5"
                                            }],
                                            "observedSeq":"CTRPNNN-TRKG-I-HI---GPGRTFYTTG---EIIGDIRQAHC"}},                                      
                                {"fullUrl": "Patient/AF112563",
                                        "request":{"method":"PUT",
                                            "url": "Patient/AF112563"},
                                        "resource":{"gender":"female",
                                            "id": "AF112563",
                                            "meta":{"profile":["https://www.medizininformatik-initiative.de/fhir/core/StructureDefinition/Patient"]},
                                        "resourceType":"Patient",
                                            "birthDate": "1963-11-01",
                                            "link": [{
                                                "other": {
                                                    "reference": "HIVdemo" },
                                                    "type": "refer"}]}},
                                    
                                    {"fullUrl": "MolecularSequence/AF112563",
                                        "request":{"method":"PUT",
                                            "url": "MolecularSequence/AF112563"},
                                        "resource":{"id": "AF112563",
                                        "resourceType":"MolecularSequence",
                                            "coordinateSystem": 0,
                                            "patient":{"reference": "Patient/AF112563"},
                                            "variant":[{
                                                "observedAllele":"CCR5"
                                            }],
                                            "observedSeq":"CTRPTNN-TRKS-I-HI---APGSAFYATG---DIIGDIRQAHC"}},                                      
                                {"fullUrl": "Patient/AF146728",
                                        "request":{"method":"PUT",
                                            "url": "Patient/AF146728"},
                                        "resource":{"gender":"female",
                                            "id": "AF146728",
                                            "meta":{"profile":["https://www.medizininformatik-initiative.de/fhir/core/StructureDefinition/Patient"]},
                                        "resourceType":"Patient",
                                            "birthDate": "2007-09-22",
                                            "link": [{
                                                "other": {
                                                    "reference": "HIVdemo" },
                                                    "type": "refer"}]}},
                                    
                                    {"fullUrl": "MolecularSequence/AF146728",
                                        "request":{"method":"PUT",
                                            "url": "MolecularSequence/AF146728"},
                                        "resource":{"id": "AF146728",
                                        "resourceType":"MolecularSequence",
                                            "coordinateSystem": 0,
                                            "patient":{"reference": "Patient/AF146728"},
                                            "variant":[{
                                                "observedAllele":"CXCR4"
                                            }],
                                            "observedSeq":"CMRPNNN-TRKG-I-YV---GPGRHIYATE---KIVGDIRQAHC"}},                                      
                                {"fullUrl": "Patient/AF194975",
                                        "request":{"method":"PUT",
                                            "url": "Patient/AF194975"},
                                        "resource":{"gender":"male",
                                            "id": "AF194975",
                                            "meta":{"profile":["https://www.medizininformatik-initiative.de/fhir/core/StructureDefinition/Patient"]},
                                        "resourceType":"Patient",
                                            "birthDate": "1964-01-12",
                                            "link": [{
                                                "other": {
                                                    "reference": "HIVdemo" },
                                                    "type": "refer"}]}},
                                    
                                    {"fullUrl": "MolecularSequence/AF194975",
                                        "request":{"method":"PUT",
                                            "url": "MolecularSequence/AF194975"},
                                        "resource":{"id": "AF194975",
                                        "resourceType":"MolecularSequence",
                                            "coordinateSystem": 0,
                                            "patient":{"reference": "Patient/AF194975"},
                                            "variant":[{
                                                "observedAllele":"CCR5"
                                            }],
                                            "observedSeq":"CTRPNNN-TRRS-I-NI---GPGRAFYATG---DIIGDIRQAHC"}},                                      
                                {"fullUrl": "Patient/AF194976",
                                        "request":{"method":"PUT",
                                            "url": "Patient/AF194976"},
                                        "resource":{"gender":"male",
                                            "id": "AF194976",
                                            "meta":{"profile":["https://www.medizininformatik-initiative.de/fhir/core/StructureDefinition/Patient"]},
                                        "resourceType":"Patient",
                                            "birthDate": "1957-11-26",
                                            "link": [{
                                                "other": {
                                                    "reference": "HIVdemo" },
                                                    "type": "refer"}]}},
                                    
                                    {"fullUrl": "MolecularSequence/AF194976",
                                        "request":{"method":"PUT",
                                            "url": "MolecularSequence/AF194976"},
                                        "resource":{"id": "AF194976",
                                        "resourceType":"MolecularSequence",
                                            "coordinateSystem": 0,
                                            "patient":{"reference": "Patient/AF194976"},
                                            "variant":[{
                                                "observedAllele":"CCR5"
                                            }],
                                            "observedSeq":"CTRPNNN-TRRS-I-SI---GPGRAFYATG---DIIGDIRQAHC"}},                                      
                                {"fullUrl": "Patient/AF194978",
                                        "request":{"method":"PUT",
                                            "url": "Patient/AF194978"},
                                        "resource":{"gender":"female",
                                            "id": "AF194978",
                                            "meta":{"profile":["https://www.medizininformatik-initiative.de/fhir/core/StructureDefinition/Patient"]},
                                        "resourceType":"Patient",
                                            "birthDate": "1962-08-04",
                                            "link": [{
                                                "other": {
                                                    "reference": "HIVdemo" },
                                                    "type": "refer"}]}},
                                    
                                    {"fullUrl": "MolecularSequence/AF194978",
                                        "request":{"method":"PUT",
                                            "url": "MolecularSequence/AF194978"},
                                        "resource":{"id": "AF194978",
                                        "resourceType":"MolecularSequence",
                                            "coordinateSystem": 0,
                                            "patient":{"reference": "Patient/AF194978"},
                                            "variant":[{
                                                "observedAllele":"CCR5"
                                            }],
                                            "observedSeq":"CTRPNNN-TRRS-I-HI---GPGKAFY-TG---EIIRNIRQAHC"}},                                      
                                {"fullUrl": "Patient/AF194979",
                                        "request":{"method":"PUT",
                                            "url": "Patient/AF194979"},
                                        "resource":{"gender":"male",
                                            "id": "AF194979",
                                            "meta":{"profile":["https://www.medizininformatik-initiative.de/fhir/core/StructureDefinition/Patient"]},
                                        "resourceType":"Patient",
                                            "birthDate": "2009-04-23",
                                            "link": [{
                                                "other": {
                                                    "reference": "HIVdemo" },
                                                    "type": "refer"}]}},
                                    
                                    {"fullUrl": "MolecularSequence/AF194979",
                                        "request":{"method":"PUT",
                                            "url": "MolecularSequence/AF194979"},
                                        "resource":{"id": "AF194979",
                                        "resourceType":"MolecularSequence",
                                            "coordinateSystem": 0,
                                            "patient":{"reference": "Patient/AF194979"},
                                            "variant":[{
                                                "observedAllele":"CCR5"
                                            }],
                                            "observedSeq":"CTRPNNN-TRRS-I-HI---GPGKAFY-TG---RNNRNIRQAHC"}},                                      
                                {"fullUrl": "Patient/AF199032",
                                        "request":{"method":"PUT",
                                            "url": "Patient/AF199032"},
                                        "resource":{"gender":"male",
                                            "id": "AF199032",
                                            "meta":{"profile":["https://www.medizininformatik-initiative.de/fhir/core/StructureDefinition/Patient"]},
                                        "resourceType":"Patient",
                                            "birthDate": "1967-02-02",
                                            "link": [{
                                                "other": {
                                                    "reference": "HIVdemo" },
                                                    "type": "refer"}]}},
                                    
                                    {"fullUrl": "MolecularSequence/AF199032",
                                        "request":{"method":"PUT",
                                            "url": "MolecularSequence/AF199032"},
                                        "resource":{"id": "AF199032",
                                        "resourceType":"MolecularSequence",
                                            "coordinateSystem": 0,
                                            "patient":{"reference": "Patient/AF199032"},
                                            "variant":[{
                                                "observedAllele":"CCR5"
                                            }],
                                            "observedSeq":"CTRPNNN-TRKS-I-PI---GPGRAFYTTG---QIIGDIRQAHC"}},                                      
                                {"fullUrl": "Patient/AF199034",
                                        "request":{"method":"PUT",
                                            "url": "Patient/AF199034"},
                                        "resource":{"gender":"male",
                                            "id": "AF199034",
                                            "meta":{"profile":["https://www.medizininformatik-initiative.de/fhir/core/StructureDefinition/Patient"]},
                                        "resourceType":"Patient",
                                            "birthDate": "2007-01-16",
                                            "link": [{
                                                "other": {
                                                    "reference": "HIVdemo" },
                                                    "type": "refer"}]}},
                                    
                                    {"fullUrl": "MolecularSequence/AF199034",
                                        "request":{"method":"PUT",
                                            "url": "MolecularSequence/AF199034"},
                                        "resource":{"id": "AF199034",
                                        "resourceType":"MolecularSequence",
                                            "coordinateSystem": 0,
                                            "patient":{"reference": "Patient/AF199034"},
                                            "variant":[{
                                                "observedAllele":"CCR5"
                                            }],
                                            "observedSeq":"CTRPNNN-TRKS-I-HI---GPGRAFYTTG---DIIGDIRQAHC"}},                                      
                                {"fullUrl": "Patient/AF199036",
                                        "request":{"method":"PUT",
                                            "url": "Patient/AF199036"},
                                        "resource":{"gender":"female",
                                            "id": "AF199036",
                                            "meta":{"profile":["https://www.medizininformatik-initiative.de/fhir/core/StructureDefinition/Patient"]},
                                        "resourceType":"Patient",
                                            "birthDate": "2002-04-08",
                                            "link": [{
                                                "other": {
                                                    "reference": "HIVdemo" },
                                                    "type": "refer"}]}},
                                    
                                    {"fullUrl": "MolecularSequence/AF199036",
                                        "request":{"method":"PUT",
                                            "url": "MolecularSequence/AF199036"},
                                        "resource":{"id": "AF199036",
                                        "resourceType":"MolecularSequence",
                                            "coordinateSystem": 0,
                                            "patient":{"reference": "Patient/AF199036"},
                                            "variant":[{
                                                "observedAllele":"CCR5"
                                            }],
                                            "observedSeq":"CTRPNNN-TRKS-I-HI---GPGRALYATG---DIVGDIRQAHC"}},                                      
                                {"fullUrl": "Patient/AF199038",
                                        "request":{"method":"PUT",
                                            "url": "Patient/AF199038"},
                                        "resource":{"gender":"male",
                                            "id": "AF199038",
                                            "meta":{"profile":["https://www.medizininformatik-initiative.de/fhir/core/StructureDefinition/Patient"]},
                                        "resourceType":"Patient",
                                            "birthDate": "1967-03-17",
                                            "link": [{
                                                "other": {
                                                    "reference": "HIVdemo" },
                                                    "type": "refer"}]}},
                                    
                                    {"fullUrl": "MolecularSequence/AF199038",
                                        "request":{"method":"PUT",
                                            "url": "MolecularSequence/AF199038"},
                                        "resource":{"id": "AF199038",
                                        "resourceType":"MolecularSequence",
                                            "coordinateSystem": 0,
                                            "patient":{"reference": "Patient/AF199038"},
                                            "variant":[{
                                                "observedAllele":"CCR5"
                                            }],
                                            "observedSeq":"CIRPNNN-TRQG-I-HI---GPGKALYTT----KIIGNIRQAHC"}},                                      
                                {"fullUrl": "Patient/AF199040",
                                        "request":{"method":"PUT",
                                            "url": "Patient/AF199040"},
                                        "resource":{"gender":"male",
                                            "id": "AF199040",
                                            "meta":{"profile":["https://www.medizininformatik-initiative.de/fhir/core/StructureDefinition/Patient"]},
                                        "resourceType":"Patient",
                                            "birthDate": "1990-05-27",
                                            "link": [{
                                                "other": {
                                                    "reference": "HIVdemo" },
                                                    "type": "refer"}]}},
                                    
                                    {"fullUrl": "MolecularSequence/AF199040",
                                        "request":{"method":"PUT",
                                            "url": "MolecularSequence/AF199040"},
                                        "resource":{"id": "AF199040",
                                        "resourceType":"MolecularSequence",
                                            "coordinateSystem": 0,
                                            "patient":{"reference": "Patient/AF199040"},
                                            "variant":[{
                                                "observedAllele":"CCR5"
                                            }],
                                            "observedSeq":"CTRPNNN-TRKS-I-NM---GPGRAWYTTG---QIIGDIRQAHC"}},                                      
                                {"fullUrl": "Patient/AF254779",
                                        "request":{"method":"PUT",
                                            "url": "Patient/AF254779"},
                                        "resource":{"gender":"male",
                                            "id": "AF254779",
                                            "meta":{"profile":["https://www.medizininformatik-initiative.de/fhir/core/StructureDefinition/Patient"]},
                                        "resourceType":"Patient",
                                            "birthDate": "1982-04-14",
                                            "link": [{
                                                "other": {
                                                    "reference": "HIVdemo" },
                                                    "type": "refer"}]}},
                                    
                                    {"fullUrl": "MolecularSequence/AF254779",
                                        "request":{"method":"PUT",
                                            "url": "MolecularSequence/AF254779"},
                                        "resource":{"id": "AF254779",
                                        "resourceType":"MolecularSequence",
                                            "coordinateSystem": 0,
                                            "patient":{"reference": "Patient/AF254779"},
                                            "variant":[{
                                                "observedAllele":"CCR5"
                                            }],
                                            "observedSeq":"CTRPGNN-TRKS-I-SM---GPGRAFYATG---DIIGDIRQAYC"}},                                      
                                {"fullUrl": "Patient/AF254781",
                                        "request":{"method":"PUT",
                                            "url": "Patient/AF254781"},
                                        "resource":{"gender":"female",
                                            "id": "AF254781",
                                            "meta":{"profile":["https://www.medizininformatik-initiative.de/fhir/core/StructureDefinition/Patient"]},
                                        "resourceType":"Patient",
                                            "birthDate": "1971-01-11",
                                            "link": [{
                                                "other": {
                                                    "reference": "HIVdemo" },
                                                    "type": "refer"}]}},
                                    
                                    {"fullUrl": "MolecularSequence/AF254781",
                                        "request":{"method":"PUT",
                                            "url": "MolecularSequence/AF254781"},
                                        "resource":{"id": "AF254781",
                                        "resourceType":"MolecularSequence",
                                            "coordinateSystem": 0,
                                            "patient":{"reference": "Patient/AF254781"},
                                            "variant":[{
                                                "observedAllele":"CCR5"
                                            }],
                                            "observedSeq":"CTRPNNN-TRKS-I-PI---GPGRAFYTTG---DIIGDIRQAHC"}},                                      
                                {"fullUrl": "Patient/AF258957",
                                        "request":{"method":"PUT",
                                            "url": "Patient/AF258957"},
                                        "resource":{"gender":"female",
                                            "id": "AF258957",
                                            "meta":{"profile":["https://www.medizininformatik-initiative.de/fhir/core/StructureDefinition/Patient"]},
                                        "resourceType":"Patient",
                                            "birthDate": "1971-09-25",
                                            "link": [{
                                                "other": {
                                                    "reference": "HIVdemo" },
                                                    "type": "refer"}]}},
                                    
                                    {"fullUrl": "MolecularSequence/AF258957",
                                        "request":{"method":"PUT",
                                            "url": "MolecularSequence/AF258957"},
                                        "resource":{"id": "AF258957",
                                        "resourceType":"MolecularSequence",
                                            "coordinateSystem": 0,
                                            "patient":{"reference": "Patient/AF258957"},
                                            "variant":[{
                                                "observedAllele":"CCR5"
                                            }],
                                            "observedSeq":"CTRPNNN-TRKS-I-HL---GPGRAFFTTG---EIIGNIRQAYC"}},                                      
                                {"fullUrl": "Patient/AF259011",
                                        "request":{"method":"PUT",
                                            "url": "Patient/AF259011"},
                                        "resource":{"gender":"female",
                                            "id": "AF259011",
                                            "meta":{"profile":["https://www.medizininformatik-initiative.de/fhir/core/StructureDefinition/Patient"]},
                                        "resourceType":"Patient",
                                            "birthDate": "1967-04-05",
                                            "link": [{
                                                "other": {
                                                    "reference": "HIVdemo" },
                                                    "type": "refer"}]}},
                                    
                                    {"fullUrl": "MolecularSequence/AF259011",
                                        "request":{"method":"PUT",
                                            "url": "MolecularSequence/AF259011"},
                                        "resource":{"id": "AF259011",
                                        "resourceType":"MolecularSequence",
                                            "coordinateSystem": 0,
                                            "patient":{"reference": "Patient/AF259011"},
                                            "variant":[{
                                                "observedAllele":"CCR5"
                                            }],
                                            "observedSeq":"CTRPGNN-TRKS-I-HI---GPGRAFYTTG---QIIGNIRQAHC"}},                                      
                                {"fullUrl": "Patient/AF286365",
                                        "request":{"method":"PUT",
                                            "url": "Patient/AF286365"},
                                        "resource":{"gender":"female",
                                            "id": "AF286365",
                                            "meta":{"profile":["https://www.medizininformatik-initiative.de/fhir/core/StructureDefinition/Patient"]},
                                        "resourceType":"Patient",
                                            "birthDate": "1943-05-18",
                                            "link": [{
                                                "other": {
                                                    "reference": "HIVdemo" },
                                                    "type": "refer"}]}},
                                    
                                    {"fullUrl": "MolecularSequence/AF286365",
                                        "request":{"method":"PUT",
                                            "url": "MolecularSequence/AF286365"},
                                        "resource":{"id": "AF286365",
                                        "resourceType":"MolecularSequence",
                                            "coordinateSystem": 0,
                                            "patient":{"reference": "Patient/AF286365"},
                                            "variant":[{
                                                "observedAllele":"CCR5 CXCR4"
                                            }],
                                            "observedSeq":"CTRPGNK-IRRR-I-HI---GPGRAFYT-----DRVGDIRQAYC"}},                                      
                                {"fullUrl": "Patient/AF310108",
                                        "request":{"method":"PUT",
                                            "url": "Patient/AF310108"},
                                        "resource":{"gender":"male",
                                            "id": "AF310108",
                                            "meta":{"profile":["https://www.medizininformatik-initiative.de/fhir/core/StructureDefinition/Patient"]},
                                        "resourceType":"Patient",
                                            "birthDate": "2005-07-18",
                                            "link": [{
                                                "other": {
                                                    "reference": "HIVdemo" },
                                                    "type": "refer"}]}},
                                    
                                    {"fullUrl": "MolecularSequence/AF310108",
                                        "request":{"method":"PUT",
                                            "url": "MolecularSequence/AF310108"},
                                        "resource":{"id": "AF310108",
                                        "resourceType":"MolecularSequence",
                                            "coordinateSystem": 0,
                                            "patient":{"reference": "Patient/AF310108"},
                                            "variant":[{
                                                "observedAllele":"CCR5"
                                            }],
                                            "observedSeq":"CTRPNNN-TRKS-I-HI---EAGKALY-TG---EIIGDIRQAHC"}},                                      
                                {"fullUrl": "Patient/AF310123",
                                        "request":{"method":"PUT",
                                            "url": "Patient/AF310123"},
                                        "resource":{"gender":"female",
                                            "id": "AF310123",
                                            "meta":{"profile":["https://www.medizininformatik-initiative.de/fhir/core/StructureDefinition/Patient"]},
                                        "resourceType":"Patient",
                                            "birthDate": "1999-10-03",
                                            "link": [{
                                                "other": {
                                                    "reference": "HIVdemo" },
                                                    "type": "refer"}]}},
                                    
                                    {"fullUrl": "MolecularSequence/AF310123",
                                        "request":{"method":"PUT",
                                            "url": "MolecularSequence/AF310123"},
                                        "resource":{"id": "AF310123",
                                        "resourceType":"MolecularSequence",
                                            "coordinateSystem": 0,
                                            "patient":{"reference": "Patient/AF310123"},
                                            "variant":[{
                                                "observedAllele":"CCR5"
                                            }],
                                            "observedSeq":"CTRPNNN-TRKS-I-HL---GAGRALY-TG---EIIGDIRQAHC"}},                                      
                                {"fullUrl": "Patient/AF355630",
                                        "request":{"method":"PUT",
                                            "url": "Patient/AF355630"},
                                        "resource":{"gender":"female",
                                            "id": "AF355630",
                                            "meta":{"profile":["https://www.medizininformatik-initiative.de/fhir/core/StructureDefinition/Patient"]},
                                        "resourceType":"Patient",
                                            "birthDate": "1942-02-10",
                                            "link": [{
                                                "other": {
                                                    "reference": "HIVdemo" },
                                                    "type": "refer"}]}},
                                    
                                    {"fullUrl": "MolecularSequence/AF355630",
                                        "request":{"method":"PUT",
                                            "url": "MolecularSequence/AF355630"},
                                        "resource":{"id": "AF355630",
                                        "resourceType":"MolecularSequence",
                                            "coordinateSystem": 0,
                                            "patient":{"reference": "Patient/AF355630"},
                                            "variant":[{
                                                "observedAllele":"CCR5 CXCR4"
                                            }],
                                            "observedSeq":"CTRPSNN-TRKS-I-NI---GPGRAWYATG---EIIGDIRKAHC"}},                                      
                                {"fullUrl": "Patient/AF355726",
                                        "request":{"method":"PUT",
                                            "url": "Patient/AF355726"},
                                        "resource":{"gender":"male",
                                            "id": "AF355726",
                                            "meta":{"profile":["https://www.medizininformatik-initiative.de/fhir/core/StructureDefinition/Patient"]},
                                        "resourceType":"Patient",
                                            "birthDate": "2009-07-22",
                                            "link": [{
                                                "other": {
                                                    "reference": "HIVdemo" },
                                                    "type": "refer"}]}},
                                    
                                    {"fullUrl": "MolecularSequence/AF355726",
                                        "request":{"method":"PUT",
                                            "url": "MolecularSequence/AF355726"},
                                        "resource":{"id": "AF355726",
                                        "resourceType":"MolecularSequence",
                                            "coordinateSystem": 0,
                                            "patient":{"reference": "Patient/AF355726"},
                                            "variant":[{
                                                "observedAllele":"CCR5"
                                            }],
                                            "observedSeq":"CTRPSNN-TRKS-I-HL---GPGRAFYATG---DIIGNIRKAHC"}},                                      
                                {"fullUrl": "Patient/AF384245",
                                        "request":{"method":"PUT",
                                            "url": "Patient/AF384245"},
                                        "resource":{"gender":"female",
                                            "id": "AF384245",
                                            "meta":{"profile":["https://www.medizininformatik-initiative.de/fhir/core/StructureDefinition/Patient"]},
                                        "resourceType":"Patient",
                                            "birthDate": "1955-03-19",
                                            "link": [{
                                                "other": {
                                                    "reference": "HIVdemo" },
                                                    "type": "refer"}]}},
                                    
                                    {"fullUrl": "MolecularSequence/AF384245",
                                        "request":{"method":"PUT",
                                            "url": "MolecularSequence/AF384245"},
                                        "resource":{"id": "AF384245",
                                        "resourceType":"MolecularSequence",
                                            "coordinateSystem": 0,
                                            "patient":{"reference": "Patient/AF384245"},
                                            "variant":[{
                                                "observedAllele":"CCR5"
                                            }],
                                            "observedSeq":"CTRPNNN-TRKS-I-HI---APGRAYYATG---DIIGDIRQAHC"}},                                      
                                {"fullUrl": "Patient/AF384248",
                                        "request":{"method":"PUT",
                                            "url": "Patient/AF384248"},
                                        "resource":{"gender":"female",
                                            "id": "AF384248",
                                            "meta":{"profile":["https://www.medizininformatik-initiative.de/fhir/core/StructureDefinition/Patient"]},
                                        "resourceType":"Patient",
                                            "birthDate": "2008-11-10",
                                            "link": [{
                                                "other": {
                                                    "reference": "HIVdemo" },
                                                    "type": "refer"}]}},
                                    
                                    {"fullUrl": "MolecularSequence/AF384248",
                                        "request":{"method":"PUT",
                                            "url": "MolecularSequence/AF384248"},
                                        "resource":{"id": "AF384248",
                                        "resourceType":"MolecularSequence",
                                            "coordinateSystem": 0,
                                            "patient":{"reference": "Patient/AF384248"},
                                            "variant":[{
                                                "observedAllele":"CCR5"
                                            }],
                                            "observedSeq":"CTRPNNN-TRKG-I-HI---GPGRAFYTTG---EIIGDIRKAHC"}},                                      
                                {"fullUrl": "Patient/AF384254",
                                        "request":{"method":"PUT",
                                            "url": "Patient/AF384254"},
                                        "resource":{"gender":"male",
                                            "id": "AF384254",
                                            "meta":{"profile":["https://www.medizininformatik-initiative.de/fhir/core/StructureDefinition/Patient"]},
                                        "resourceType":"Patient",
                                            "birthDate": "1977-05-14",
                                            "link": [{
                                                "other": {
                                                    "reference": "HIVdemo" },
                                                    "type": "refer"}]}},
                                    
                                    {"fullUrl": "MolecularSequence/AF384254",
                                        "request":{"method":"PUT",
                                            "url": "MolecularSequence/AF384254"},
                                        "resource":{"id": "AF384254",
                                        "resourceType":"MolecularSequence",
                                            "coordinateSystem": 0,
                                            "patient":{"reference": "Patient/AF384254"},
                                            "variant":[{
                                                "observedAllele":"CCR5"
                                            }],
                                            "observedSeq":"CTRPSNN-TRKS-I-HM---GPGRAWYATG---SITGDIRQAHC"}},                                      
                                {"fullUrl": "Patient/AF384259",
                                        "request":{"method":"PUT",
                                            "url": "Patient/AF384259"},
                                        "resource":{"gender":"female",
                                            "id": "AF384259",
                                            "meta":{"profile":["https://www.medizininformatik-initiative.de/fhir/core/StructureDefinition/Patient"]},
                                        "resourceType":"Patient",
                                            "birthDate": "2003-11-14",
                                            "link": [{
                                                "other": {
                                                    "reference": "HIVdemo" },
                                                    "type": "refer"}]}},
                                    
                                    {"fullUrl": "MolecularSequence/AF384259",
                                        "request":{"method":"PUT",
                                            "url": "MolecularSequence/AF384259"},
                                        "resource":{"id": "AF384259",
                                        "resourceType":"MolecularSequence",
                                            "coordinateSystem": 0,
                                            "patient":{"reference": "Patient/AF384259"},
                                            "variant":[{
                                                "observedAllele":"CCR5"
                                            }],
                                            "observedSeq":"CTRPNNN-TRKS-I-HI---GPGRAFYTTG---EIIGDIRQAHC"}},                                      
                                {"fullUrl": "Patient/AF384261",
                                        "request":{"method":"PUT",
                                            "url": "Patient/AF384261"},
                                        "resource":{"gender":"male",
                                            "id": "AF384261",
                                            "meta":{"profile":["https://www.medizininformatik-initiative.de/fhir/core/StructureDefinition/Patient"]},
                                        "resourceType":"Patient",
                                            "birthDate": "1946-04-08",
                                            "link": [{
                                                "other": {
                                                    "reference": "HIVdemo" },
                                                    "type": "refer"}]}},
                                    
                                    {"fullUrl": "MolecularSequence/AF384261",
                                        "request":{"method":"PUT",
                                            "url": "MolecularSequence/AF384261"},
                                        "resource":{"id": "AF384261",
                                        "resourceType":"MolecularSequence",
                                            "coordinateSystem": 0,
                                            "patient":{"reference": "Patient/AF384261"},
                                            "variant":[{
                                                "observedAllele":"CCR5"
                                            }],
                                            "observedSeq":"CTRPNNN-TRKG-I-HI---GPGRAFYATG---EIIGDIRQAHC"}},                                      
                                {"fullUrl": "Patient/AF384265",
                                        "request":{"method":"PUT",
                                            "url": "Patient/AF384265"},
                                        "resource":{"gender":"male",
                                            "id": "AF384265",
                                            "meta":{"profile":["https://www.medizininformatik-initiative.de/fhir/core/StructureDefinition/Patient"]},
                                        "resourceType":"Patient",
                                            "birthDate": "1962-11-29",
                                            "link": [{
                                                "other": {
                                                    "reference": "HIVdemo" },
                                                    "type": "refer"}]}},
                                    
                                    {"fullUrl": "MolecularSequence/AF384265",
                                        "request":{"method":"PUT",
                                            "url": "MolecularSequence/AF384265"},
                                        "resource":{"id": "AF384265",
                                        "resourceType":"MolecularSequence",
                                            "coordinateSystem": 0,
                                            "patient":{"reference": "Patient/AF384265"},
                                            "variant":[{
                                                "observedAllele":"CCR5"
                                            }],
                                            "observedSeq":"CTRPNNN-TRKS-I-NI---GPGRAFFATG---DIIGDIRQAHC"}},                                      
                                {"fullUrl": "Patient/AF384269",
                                        "request":{"method":"PUT",
                                            "url": "Patient/AF384269"},
                                        "resource":{"gender":"male",
                                            "id": "AF384269",
                                            "meta":{"profile":["https://www.medizininformatik-initiative.de/fhir/core/StructureDefinition/Patient"]},
                                        "resourceType":"Patient",
                                            "birthDate": "1982-07-09",
                                            "link": [{
                                                "other": {
                                                    "reference": "HIVdemo" },
                                                    "type": "refer"}]}},
                                    
                                    {"fullUrl": "MolecularSequence/AF384269",
                                        "request":{"method":"PUT",
                                            "url": "MolecularSequence/AF384269"},
                                        "resource":{"id": "AF384269",
                                        "resourceType":"MolecularSequence",
                                            "coordinateSystem": 0,
                                            "patient":{"reference": "Patient/AF384269"},
                                            "variant":[{
                                                "observedAllele":"CCR5"
                                            }],
                                            "observedSeq":"CTRPGNN-TRRS-I-HI---APGRAFYATG---DIIGDIRKAHC"}},                                      
                                {"fullUrl": "Patient/AF384272",
                                        "request":{"method":"PUT",
                                            "url": "Patient/AF384272"},
                                        "resource":{"gender":"male",
                                            "id": "AF384272",
                                            "meta":{"profile":["https://www.medizininformatik-initiative.de/fhir/core/StructureDefinition/Patient"]},
                                        "resourceType":"Patient",
                                            "birthDate": "1964-02-11",
                                            "link": [{
                                                "other": {
                                                    "reference": "HIVdemo" },
                                                    "type": "refer"}]}},
                                    
                                    {"fullUrl": "MolecularSequence/AF384272",
                                        "request":{"method":"PUT",
                                            "url": "MolecularSequence/AF384272"},
                                        "resource":{"id": "AF384272",
                                        "resourceType":"MolecularSequence",
                                            "coordinateSystem": 0,
                                            "patient":{"reference": "Patient/AF384272"},
                                            "variant":[{
                                                "observedAllele":"CCR5"
                                            }],
                                            "observedSeq":"CTRPNNN-TRKS-I-HM---GPGGSFYATG---DIIGNIRQAHC"}},                                      
                                {"fullUrl": "Patient/AF384278",
                                        "request":{"method":"PUT",
                                            "url": "Patient/AF384278"},
                                        "resource":{"gender":"female",
                                            "id": "AF384278",
                                            "meta":{"profile":["https://www.medizininformatik-initiative.de/fhir/core/StructureDefinition/Patient"]},
                                        "resourceType":"Patient",
                                            "birthDate": "1960-07-02",
                                            "link": [{
                                                "other": {
                                                    "reference": "HIVdemo" },
                                                    "type": "refer"}]}},
                                    
                                    {"fullUrl": "MolecularSequence/AF384278",
                                        "request":{"method":"PUT",
                                            "url": "MolecularSequence/AF384278"},
                                        "resource":{"id": "AF384278",
                                        "resourceType":"MolecularSequence",
                                            "coordinateSystem": 0,
                                            "patient":{"reference": "Patient/AF384278"},
                                            "variant":[{
                                                "observedAllele":"CCR5"
                                            }],
                                            "observedSeq":"CIRPNNN-TRTS-M-PM---GPGRAFYAMG---DIIGDIRQAHC"}},                                      
                                {"fullUrl": "Patient/AF384282",
                                        "request":{"method":"PUT",
                                            "url": "Patient/AF384282"},
                                        "resource":{"gender":"female",
                                            "id": "AF384282",
                                            "meta":{"profile":["https://www.medizininformatik-initiative.de/fhir/core/StructureDefinition/Patient"]},
                                        "resourceType":"Patient",
                                            "birthDate": "1943-05-06",
                                            "link": [{
                                                "other": {
                                                    "reference": "HIVdemo" },
                                                    "type": "refer"}]}},
                                    
                                    {"fullUrl": "MolecularSequence/AF384282",
                                        "request":{"method":"PUT",
                                            "url": "MolecularSequence/AF384282"},
                                        "resource":{"id": "AF384282",
                                        "resourceType":"MolecularSequence",
                                            "coordinateSystem": 0,
                                            "patient":{"reference": "Patient/AF384282"},
                                            "variant":[{
                                                "observedAllele":"CCR5"
                                            }],
                                            "observedSeq":"CTRPNNN-TRKS-I-HI---GPGRAFYTTG---QIVGDIRKAHC"}},                                      
                                {"fullUrl": "Patient/AF384286",
                                        "request":{"method":"PUT",
                                            "url": "Patient/AF384286"},
                                        "resource":{"gender":"male",
                                            "id": "AF384286",
                                            "meta":{"profile":["https://www.medizininformatik-initiative.de/fhir/core/StructureDefinition/Patient"]},
                                        "resourceType":"Patient",
                                            "birthDate": "1951-01-01",
                                            "link": [{
                                                "other": {
                                                    "reference": "HIVdemo" },
                                                    "type": "refer"}]}},
                                    
                                    {"fullUrl": "MolecularSequence/AF384286",
                                        "request":{"method":"PUT",
                                            "url": "MolecularSequence/AF384286"},
                                        "resource":{"id": "AF384286",
                                        "resourceType":"MolecularSequence",
                                            "coordinateSystem": 0,
                                            "patient":{"reference": "Patient/AF384286"},
                                            "variant":[{
                                                "observedAllele":"CCR5"
                                            }],
                                            "observedSeq":"CTRPNNN-TRKS-I-HI---GPGRAFYARG---DIIGDIRQAHC"}},                                      
                                {"fullUrl": "Patient/AF384291",
                                        "request":{"method":"PUT",
                                            "url": "Patient/AF384291"},
                                        "resource":{"gender":"male",
                                            "id": "AF384291",
                                            "meta":{"profile":["https://www.medizininformatik-initiative.de/fhir/core/StructureDefinition/Patient"]},
                                        "resourceType":"Patient",
                                            "birthDate": "1964-10-25",
                                            "link": [{
                                                "other": {
                                                    "reference": "HIVdemo" },
                                                    "type": "refer"}]}},
                                    
                                    {"fullUrl": "MolecularSequence/AF384291",
                                        "request":{"method":"PUT",
                                            "url": "MolecularSequence/AF384291"},
                                        "resource":{"id": "AF384291",
                                        "resourceType":"MolecularSequence",
                                            "coordinateSystem": 0,
                                            "patient":{"reference": "Patient/AF384291"},
                                            "variant":[{
                                                "observedAllele":"CCR5"
                                            }],
                                            "observedSeq":"CTRPNNN-TRKS-I-PI---GPGRAFYARG---DIIGDIRQAHC"}},                                      
                                {"fullUrl": "Patient/AF384294",
                                        "request":{"method":"PUT",
                                            "url": "Patient/AF384294"},
                                        "resource":{"gender":"male",
                                            "id": "AF384294",
                                            "meta":{"profile":["https://www.medizininformatik-initiative.de/fhir/core/StructureDefinition/Patient"]},
                                        "resourceType":"Patient",
                                            "birthDate": "1963-03-04",
                                            "link": [{
                                                "other": {
                                                    "reference": "HIVdemo" },
                                                    "type": "refer"}]}},
                                    
                                    {"fullUrl": "MolecularSequence/AF384294",
                                        "request":{"method":"PUT",
                                            "url": "MolecularSequence/AF384294"},
                                        "resource":{"id": "AF384294",
                                        "resourceType":"MolecularSequence",
                                            "coordinateSystem": 0,
                                            "patient":{"reference": "Patient/AF384294"},
                                            "variant":[{
                                                "observedAllele":"CCR5"
                                            }],
                                            "observedSeq":"CTRPNNN-TRKS-I-HI---GPGRAVYATG---QIIGDIRQAHC"}},                                      
                                {"fullUrl": "Patient/AF384299",
                                        "request":{"method":"PUT",
                                            "url": "Patient/AF384299"},
                                        "resource":{"gender":"female",
                                            "id": "AF384299",
                                            "meta":{"profile":["https://www.medizininformatik-initiative.de/fhir/core/StructureDefinition/Patient"]},
                                        "resourceType":"Patient",
                                            "birthDate": "1965-08-09",
                                            "link": [{
                                                "other": {
                                                    "reference": "HIVdemo" },
                                                    "type": "refer"}]}},
                                    
                                    {"fullUrl": "MolecularSequence/AF384299",
                                        "request":{"method":"PUT",
                                            "url": "MolecularSequence/AF384299"},
                                        "resource":{"id": "AF384299",
                                        "resourceType":"MolecularSequence",
                                            "coordinateSystem": 0,
                                            "patient":{"reference": "Patient/AF384299"},
                                            "variant":[{
                                                "observedAllele":"CCR5"
                                            }],
                                            "observedSeq":"CTRPNNN-TRKS-I-HI---GPGRAVYATG---QIIGDIRQAHC"}},                                      
                                {"fullUrl": "Patient/AF384303",
                                        "request":{"method":"PUT",
                                            "url": "Patient/AF384303"},
                                        "resource":{"gender":"female",
                                            "id": "AF384303",
                                            "meta":{"profile":["https://www.medizininformatik-initiative.de/fhir/core/StructureDefinition/Patient"]},
                                        "resourceType":"Patient",
                                            "birthDate": "1980-03-26",
                                            "link": [{
                                                "other": {
                                                    "reference": "HIVdemo" },
                                                    "type": "refer"}]}},
                                    
                                    {"fullUrl": "MolecularSequence/AF384303",
                                        "request":{"method":"PUT",
                                            "url": "MolecularSequence/AF384303"},
                                        "resource":{"id": "AF384303",
                                        "resourceType":"MolecularSequence",
                                            "coordinateSystem": 0,
                                            "patient":{"reference": "Patient/AF384303"},
                                            "variant":[{
                                                "observedAllele":"CCR5"
                                            }],
                                            "observedSeq":"CTRPNNN-TRKS-I-PI---GPGRAVYATG---QMIGDIRQAHC"}},                                      
                                {"fullUrl": "Patient/AF384305",
                                        "request":{"method":"PUT",
                                            "url": "Patient/AF384305"},
                                        "resource":{"gender":"male",
                                            "id": "AF384305",
                                            "meta":{"profile":["https://www.medizininformatik-initiative.de/fhir/core/StructureDefinition/Patient"]},
                                        "resourceType":"Patient",
                                            "birthDate": "1941-01-24",
                                            "link": [{
                                                "other": {
                                                    "reference": "HIVdemo" },
                                                    "type": "refer"}]}},
                                    
                                    {"fullUrl": "MolecularSequence/AF384305",
                                        "request":{"method":"PUT",
                                            "url": "MolecularSequence/AF384305"},
                                        "resource":{"id": "AF384305",
                                        "resourceType":"MolecularSequence",
                                            "coordinateSystem": 0,
                                            "patient":{"reference": "Patient/AF384305"},
                                            "variant":[{
                                                "observedAllele":"CCR5"
                                            }],
                                            "observedSeq":"CTRPNNN-TRKS-I-HI---GPGRAFYATG---DIIGDIRQAHC"}},                                      
                                {"fullUrl": "Patient/AF384317",
                                        "request":{"method":"PUT",
                                            "url": "Patient/AF384317"},
                                        "resource":{"gender":"female",
                                            "id": "AF384317",
                                            "meta":{"profile":["https://www.medizininformatik-initiative.de/fhir/core/StructureDefinition/Patient"]},
                                        "resourceType":"Patient",
                                            "birthDate": "1958-07-14",
                                            "link": [{
                                                "other": {
                                                    "reference": "HIVdemo" },
                                                    "type": "refer"}]}},
                                    
                                    {"fullUrl": "MolecularSequence/AF384317",
                                        "request":{"method":"PUT",
                                            "url": "MolecularSequence/AF384317"},
                                        "resource":{"id": "AF384317",
                                        "resourceType":"MolecularSequence",
                                            "coordinateSystem": 0,
                                            "patient":{"reference": "Patient/AF384317"},
                                            "variant":[{
                                                "observedAllele":"CCR5"
                                            }],
                                            "observedSeq":"CTRPNNN-TRKG-I-HI---GPGGAIYATG---AITGDIRQAHC"}},                                      
                                {"fullUrl": "Patient/AF384322",
                                        "request":{"method":"PUT",
                                            "url": "Patient/AF384322"},
                                        "resource":{"gender":"female",
                                            "id": "AF384322",
                                            "meta":{"profile":["https://www.medizininformatik-initiative.de/fhir/core/StructureDefinition/Patient"]},
                                        "resourceType":"Patient",
                                            "birthDate": "1969-08-16",
                                            "link": [{
                                                "other": {
                                                    "reference": "HIVdemo" },
                                                    "type": "refer"}]}},
                                    
                                    {"fullUrl": "MolecularSequence/AF384322",
                                        "request":{"method":"PUT",
                                            "url": "MolecularSequence/AF384322"},
                                        "resource":{"id": "AF384322",
                                        "resourceType":"MolecularSequence",
                                            "coordinateSystem": 0,
                                            "patient":{"reference": "Patient/AF384322"},
                                            "variant":[{
                                                "observedAllele":"CCR5"
                                            }],
                                            "observedSeq":"CTRPNNN-TRKG-I-HI---GPGGAIYATG---AITGDIRQAHC"}},                                      
                                {"fullUrl": "Patient/AF384326",
                                        "request":{"method":"PUT",
                                            "url": "Patient/AF384326"},
                                        "resource":{"gender":"female",
                                            "id": "AF384326",
                                            "meta":{"profile":["https://www.medizininformatik-initiative.de/fhir/core/StructureDefinition/Patient"]},
                                        "resourceType":"Patient",
                                            "birthDate": "1993-06-18",
                                            "link": [{
                                                "other": {
                                                    "reference": "HIVdemo" },
                                                    "type": "refer"}]}},
                                    
                                    {"fullUrl": "MolecularSequence/AF384326",
                                        "request":{"method":"PUT",
                                            "url": "MolecularSequence/AF384326"},
                                        "resource":{"id": "AF384326",
                                        "resourceType":"MolecularSequence",
                                            "coordinateSystem": 0,
                                            "patient":{"reference": "Patient/AF384326"},
                                            "variant":[{
                                                "observedAllele":"CCR5"
                                            }],
                                            "observedSeq":"CTRPNNN-TRKS-I-SI---GPGRAFYAHG---DIVGDIRQAHC"}},                                      
                                {"fullUrl": "Patient/AF384327",
                                        "request":{"method":"PUT",
                                            "url": "Patient/AF384327"},
                                        "resource":{"gender":"male",
                                            "id": "AF384327",
                                            "meta":{"profile":["https://www.medizininformatik-initiative.de/fhir/core/StructureDefinition/Patient"]},
                                        "resourceType":"Patient",
                                            "birthDate": "1975-08-28",
                                            "link": [{
                                                "other": {
                                                    "reference": "HIVdemo" },
                                                    "type": "refer"}]}},
                                    
                                    {"fullUrl": "MolecularSequence/AF384327",
                                        "request":{"method":"PUT",
                                            "url": "MolecularSequence/AF384327"},
                                        "resource":{"id": "AF384327",
                                        "resourceType":"MolecularSequence",
                                            "coordinateSystem": 0,
                                            "patient":{"reference": "Patient/AF384327"},
                                            "variant":[{
                                                "observedAllele":"CCR5"
                                            }],
                                            "observedSeq":"CTRPNNN-TRKG-I-AI---GPGRAVYATE---KIVGDIRQAHC"}},                                      
                                {"fullUrl": "Patient/AF384330",
                                        "request":{"method":"PUT",
                                            "url": "Patient/AF384330"},
                                        "resource":{"gender":"male",
                                            "id": "AF384330",
                                            "meta":{"profile":["https://www.medizininformatik-initiative.de/fhir/core/StructureDefinition/Patient"]},
                                        "resourceType":"Patient",
                                            "birthDate": "1962-06-02",
                                            "link": [{
                                                "other": {
                                                    "reference": "HIVdemo" },
                                                    "type": "refer"}]}},
                                    
                                    {"fullUrl": "MolecularSequence/AF384330",
                                        "request":{"method":"PUT",
                                            "url": "MolecularSequence/AF384330"},
                                        "resource":{"id": "AF384330",
                                        "resourceType":"MolecularSequence",
                                            "coordinateSystem": 0,
                                            "patient":{"reference": "Patient/AF384330"},
                                            "variant":[{
                                                "observedAllele":"CCR5"
                                            }],
                                            "observedSeq":"CIRPNNN-TRKG-I-HI---GPGRTFYATG---EIIGNIRQAHC"}},                                      
                                {"fullUrl": "Patient/AF384333",
                                        "request":{"method":"PUT",
                                            "url": "Patient/AF384333"},
                                        "resource":{"gender":"female",
                                            "id": "AF384333",
                                            "meta":{"profile":["https://www.medizininformatik-initiative.de/fhir/core/StructureDefinition/Patient"]},
                                        "resourceType":"Patient",
                                            "birthDate": "1952-09-25",
                                            "link": [{
                                                "other": {
                                                    "reference": "HIVdemo" },
                                                    "type": "refer"}]}},
                                    
                                    {"fullUrl": "MolecularSequence/AF384333",
                                        "request":{"method":"PUT",
                                            "url": "MolecularSequence/AF384333"},
                                        "resource":{"id": "AF384333",
                                        "resourceType":"MolecularSequence",
                                            "coordinateSystem": 0,
                                            "patient":{"reference": "Patient/AF384333"},
                                            "variant":[{
                                                "observedAllele":"CCR5"
                                            }],
                                            "observedSeq":"CTRPNNN-TRKS-I-PL---GAGRAWYATG---DIIGDIRQAHC"}},                                      
                                {"fullUrl": "Patient/AF491737",
                                        "request":{"method":"PUT",
                                            "url": "Patient/AF491737"},
                                        "resource":{"gender":"male",
                                            "id": "AF491737",
                                            "meta":{"profile":["https://www.medizininformatik-initiative.de/fhir/core/StructureDefinition/Patient"]},
                                        "resourceType":"Patient",
                                            "birthDate": "1980-10-24",
                                            "link": [{
                                                "other": {
                                                    "reference": "HIVdemo" },
                                                    "type": "refer"}]}},
                                    
                                    {"fullUrl": "MolecularSequence/AF491737",
                                        "request":{"method":"PUT",
                                            "url": "MolecularSequence/AF491737"},
                                        "resource":{"id": "AF491737",
                                        "resourceType":"MolecularSequence",
                                            "coordinateSystem": 0,
                                            "patient":{"reference": "Patient/AF491737"},
                                            "variant":[{
                                                "observedAllele":"CCR5"
                                            }],
                                            "observedSeq":"CTRPNNN-TRKS-I-HM---GPGKAFYTT----GVIGDIRQAHC"}},                                      
                                {"fullUrl": "Patient/AF491740",
                                        "request":{"method":"PUT",
                                            "url": "Patient/AF491740"},
                                        "resource":{"gender":"female",
                                            "id": "AF491740",
                                            "meta":{"profile":["https://www.medizininformatik-initiative.de/fhir/core/StructureDefinition/Patient"]},
                                        "resourceType":"Patient",
                                            "birthDate": "2015-05-12",
                                            "link": [{
                                                "other": {
                                                    "reference": "HIVdemo" },
                                                    "type": "refer"}]}},
                                    
                                    {"fullUrl": "MolecularSequence/AF491740",
                                        "request":{"method":"PUT",
                                            "url": "MolecularSequence/AF491740"},
                                        "resource":{"id": "AF491740",
                                        "resourceType":"MolecularSequence",
                                            "coordinateSystem": 0,
                                            "patient":{"reference": "Patient/AF491740"},
                                            "variant":[{
                                                "observedAllele":"CCR5"
                                            }],
                                            "observedSeq":"CTRPNNN-TRKS-I-PM---GPGKAFYATG---DIIGDIRQAHC"}},                                      
                                {"fullUrl": "Patient/AF540994",
                                        "request":{"method":"PUT",
                                            "url": "Patient/AF540994"},
                                        "resource":{"gender":"male",
                                            "id": "AF540994",
                                            "meta":{"profile":["https://www.medizininformatik-initiative.de/fhir/core/StructureDefinition/Patient"]},
                                        "resourceType":"Patient",
                                            "birthDate": "2008-04-24",
                                            "link": [{
                                                "other": {
                                                    "reference": "HIVdemo" },
                                                    "type": "refer"}]}},
                                    
                                    {"fullUrl": "MolecularSequence/AF540994",
                                        "request":{"method":"PUT",
                                            "url": "MolecularSequence/AF540994"},
                                        "resource":{"id": "AF540994",
                                        "resourceType":"MolecularSequence",
                                            "coordinateSystem": 0,
                                            "patient":{"reference": "Patient/AF540994"},
                                            "variant":[{
                                                "observedAllele":"CCR5"
                                            }],
                                            "observedSeq":"CTRPNNN-TRKS-I-PI---GPGRALYATG---EIIGQIRRAYC"}},                                      
                                {"fullUrl": "Patient/AJ418478",
                                        "request":{"method":"PUT",
                                            "url": "Patient/AJ418478"},
                                        "resource":{"gender":"female",
                                            "id": "AJ418478",
                                            "meta":{"profile":["https://www.medizininformatik-initiative.de/fhir/core/StructureDefinition/Patient"]},
                                        "resourceType":"Patient",
                                            "birthDate": "1975-03-12",
                                            "link": [{
                                                "other": {
                                                    "reference": "HIVdemo" },
                                                    "type": "refer"}]}},
                                    
                                    {"fullUrl": "MolecularSequence/AJ418478",
                                        "request":{"method":"PUT",
                                            "url": "MolecularSequence/AJ418478"},
                                        "resource":{"id": "AJ418478",
                                        "resourceType":"MolecularSequence",
                                            "coordinateSystem": 0,
                                            "patient":{"reference": "Patient/AJ418478"},
                                            "variant":[{
                                                "observedAllele":"CCR5"
                                            }],
                                            "observedSeq":"CTRPNNN-TRKS-I-PI---GPGRALYATG---DIIGEIRQAFC"}},                                      
                                {"fullUrl": "Patient/AJ418495",
                                        "request":{"method":"PUT",
                                            "url": "Patient/AJ418495"},
                                        "resource":{"gender":"female",
                                            "id": "AJ418495",
                                            "meta":{"profile":["https://www.medizininformatik-initiative.de/fhir/core/StructureDefinition/Patient"]},
                                        "resourceType":"Patient",
                                            "birthDate": "1954-06-14",
                                            "link": [{
                                                "other": {
                                                    "reference": "HIVdemo" },
                                                    "type": "refer"}]}},
                                    
                                    {"fullUrl": "MolecularSequence/AJ418495",
                                        "request":{"method":"PUT",
                                            "url": "MolecularSequence/AJ418495"},
                                        "resource":{"id": "AJ418495",
                                        "resourceType":"MolecularSequence",
                                            "coordinateSystem": 0,
                                            "patient":{"reference": "Patient/AJ418495"},
                                            "variant":[{
                                                "observedAllele":"CCR5"
                                            }],
                                            "observedSeq":"CTRLNNN-TRKS-I-HM---GPGRAFFATG---EIIGDIRQAHC"}},                                      
                                {"fullUrl": "Patient/AJ418514",
                                        "request":{"method":"PUT",
                                            "url": "Patient/AJ418514"},
                                        "resource":{"gender":"male",
                                            "id": "AJ418514",
                                            "meta":{"profile":["https://www.medizininformatik-initiative.de/fhir/core/StructureDefinition/Patient"]},
                                        "resourceType":"Patient",
                                            "birthDate": "1992-04-06",
                                            "link": [{
                                                "other": {
                                                    "reference": "HIVdemo" },
                                                    "type": "refer"}]}},
                                    
                                    {"fullUrl": "MolecularSequence/AJ418514",
                                        "request":{"method":"PUT",
                                            "url": "MolecularSequence/AJ418514"},
                                        "resource":{"id": "AJ418514",
                                        "resourceType":"MolecularSequence",
                                            "coordinateSystem": 0,
                                            "patient":{"reference": "Patient/AJ418514"},
                                            "variant":[{
                                                "observedAllele":"CCR5"
                                            }],
                                            "observedSeq":"CTRPNNN-TRKS-I-HI---GPGRAFYTTG---GIIGNIRQAHC"}},                                      
                                {"fullUrl": "Patient/AJ418521",
                                        "request":{"method":"PUT",
                                            "url": "Patient/AJ418521"},
                                        "resource":{"gender":"male",
                                            "id": "AJ418521",
                                            "meta":{"profile":["https://www.medizininformatik-initiative.de/fhir/core/StructureDefinition/Patient"]},
                                        "resourceType":"Patient",
                                            "birthDate": "1998-03-18",
                                            "link": [{
                                                "other": {
                                                    "reference": "HIVdemo" },
                                                    "type": "refer"}]}},
                                    
                                    {"fullUrl": "MolecularSequence/AJ418521",
                                        "request":{"method":"PUT",
                                            "url": "MolecularSequence/AJ418521"},
                                        "resource":{"id": "AJ418521",
                                        "resourceType":"MolecularSequence",
                                            "coordinateSystem": 0,
                                            "patient":{"reference": "Patient/AJ418521"},
                                            "variant":[{
                                                "observedAllele":"CCR5"
                                            }],
                                            "observedSeq":"CTRPSNN-TRKS-I-PI---GPGRAFYTTG---EIIGDIRQAHC"}},                                      
                                {"fullUrl": "Patient/AJ418531",
                                        "request":{"method":"PUT",
                                            "url": "Patient/AJ418531"},
                                        "resource":{"gender":"female",
                                            "id": "AJ418531",
                                            "meta":{"profile":["https://www.medizininformatik-initiative.de/fhir/core/StructureDefinition/Patient"]},
                                        "resourceType":"Patient",
                                            "birthDate": "1974-08-22",
                                            "link": [{
                                                "other": {
                                                    "reference": "HIVdemo" },
                                                    "type": "refer"}]}},
                                    
                                    {"fullUrl": "MolecularSequence/AJ418531",
                                        "request":{"method":"PUT",
                                            "url": "MolecularSequence/AJ418531"},
                                        "resource":{"id": "AJ418531",
                                        "resourceType":"MolecularSequence",
                                            "coordinateSystem": 0,
                                            "patient":{"reference": "Patient/AJ418531"},
                                            "variant":[{
                                                "observedAllele":"CCR5"
                                            }],
                                            "observedSeq":"CTRPHNN-TRKS-I-HI---GPGRAFYATG---EIIGDIRQAHC"}},                                      
                            ], 
 "id": "31d3977d39ed" ,"resourceType":"Bundle","type":"transaction"}